gyro_x,gyro_y,gyro_z
-0.010173844965014382,0.02250198394627476,-0.0005223136921093784
0.008148020576319002,-0.028473900945239446,-0.0069775195279512476
-0.0028983140361700257,0.023201396285962003,0.009661597472443224
-0.0027435458307022457,-0.011388124358407376,-0.00782307522412908
0.01053042790404049,-0.003039485573895323,0.00358593024418964
-0.008853599048567879,0.012414794529336337,0.0036518894301177662
0.001605816536384327,-0.01563161644832043,-0.007079956865875959
0.0020728580026401497,0.01169966952101623,0.00453089648226457
-0.006971153968140698,-0.0031512718167269415,-0.0012549034564129469
0.008529181356052788,-0.004111888275765279,-0.002995269279786235
-0.002787660451458605,0.008753569127101846,0.005957929070622838
-0.0048824335149287475,-0.008722896476217858,-0.004604017269133603
0.013015213565677149,0.0077041780121523094,-0.0021557402230364744
-0.021545669069155067,-0.008369785352646514,0.012685417552333374
-0.026073953515855515,-0.001343230408947706,0.022666785290524967
0.011954696859492105,0.000155992951609525,-0.01975598055725942
0.013632807065642539,0.008414274896619153,0.027179679669849344
0.014314751312865517,0.02198399274155125,0.005687337832218739
-0.005875938457057476,-0.030559376742829568,-0.010251594214391365
-0.033219919121589114,-0.009181916580916879,-0.0035147002417878367
0.011009019445203192,0.01551174461576435,-0.01602406347947023
0.002566386319407098,-0.011517404322679368,0.011904192462545555
-0.013374292591868826,0.006729282144054461,-0.0023902477468212406
0.0181290156033028,0.00296853419056683,-0.01192031164840053
-0.016724826269731173,-0.017286141397329653,0.029412494821937592
-0.00028007811523437045,0.00374671422682228,-0.0052945045764033975
-0.007624625309614795,0.011103294429788545,-0.0080952421909669
0.011978869125618935,-0.0169399774963874,0.014117657265848472
-0.010489174988164951,0.013973049940977846,-0.012202579140031873
0.0019153654240141986,-0.003994436579671573,0.004860013093304865
0.010239079338636627,-0.0058857885109315404,0.0030973142996214434
-0.019381295127199064,0.012862565691763677,-0.008946860692430614
0.020164644180001176,-0.013723156894241972,0.010244048245381828
-0.009280545928675664,0.007221099649580285,-0.006871893454413622
-0.010731574853592456,0.003681841188551244,-0.00028545386308749657
0.03211401197342618,-0.013969773305506725,0.008912459031538433
-0.04853345431649274,0.02024742478594684,-0.014936397895199429
0.05971794168092881,-0.02002744119534527,0.017477523183263476
-0.13173541813031847,0.021764934928904595,-0.014860941189541158
-0.021670209424785224,0.004521039085573927,-0.005955706887511725
0.003972243716986049,0.0031806858919484287,0.0014367639293766678
0.012650733400507739,-0.005888089741292402,0.004311027084954838
-0.020632915208784464,0.0053212363739777195,-0.007037600777462084
0.017108547698510338,-0.0024555825359149114,0.006294304961524968
-0.005473856793630022,-0.0015696288515918105,-0.0028503070677527277
-0.007576188288738746,0.003308511501009423,-0.0027013687050253263
0.015940266215815683,-0.0028960120009394064,0.007899645548640213
-0.015368080980394175,0.0015070192601121814,-0.010081191102103582
0.006414024099363274,7.097796112565414e-06,0.007602235872357723
0.006521778216080368,-0.00028157624593584815,-0.0014452702635657398
-0.01700536052775823,-0.0016425631478154251,-0.0061303199971462705
0.027553221889351193,0.007677909034153416,0.013527031859978498
-0.008675522184193424,-0.010637204118092672,-0.009688848704781868
-0.005278780162658742,0.005446657319088029,0.006547533508155767
0.012624946609412557,-9.772934228422309e-05,-0.003000665190966318
-0.012045538285588594,-0.004665517674624375,-0.0005298252051335179
0.005025664271245164,0.008485679504776925,0.002789690545048501
0.004634959104135018,-0.008133471939916311,-0.0019267558815752117
-0.012118395679339516,0.0027871745548650696,0.0002165234169659
0.01355642416690959,0.004496522735306999,0.0007220741557678004
-0.007566769963205777,-0.009643334162881132,-0.0018000128151863918
-0.0035589428033877663,0.01063556038453962,-0.0008368553814777301
0.017328024754191526,-0.007084713386894755,0.00542947065588505
-0.032968341294404534,0.002650091262113443,-0.012990488522242504
0.035124381739180574,-0.01042196715581712,0.01780036653794515
-0.024976622764293042,0.0021423995048239263,0.0022225799465464364
-0.02231007087515724,0.016013103445564215,-0.025422284203853646
0.0191989621306784,-0.0012000272839960608,0.012704478753753207
0.05196339544601758,-0.0024028228660051857,-0.006227396718330986
0.06403620521829487,-0.006901514371498538,0.0130957801534477
-0.06527049445457561,0.0033609858456913194,0.0018870971872853395
-0.044065543989074876,-0.0004868078557961125,-0.016410293625868426
0.009156941625222181,-0.000571726315639637,0.00923211184051612
-0.004727814754232698,-0.0001916594395206992,-0.0028350533674961777
-0.004973284096591105,-8.009067595512781e-05,-0.003368752824319269
0.01366972983316355,-0.0001850714918336988,0.008548972998074698
-0.02877603455522045,0.0010599998140701874,-0.009308043942187415
-0.0225078713564814,-0.04702388838676717,0.025171079139473453
0.03666972635798668,-0.07124022233756086,0.004475859351461515
0.07185172805712528,-0.052123721591651184,0.010387003258007056
-0.011472801487914311,0.015191539445435776,-0.03302665264262032
-0.06072080313462756,0.07900857608780282,-0.023840750716011022
-6.955582876764371e-05,0.046744403215197065,0.022679124432402702
-0.04391261653060485,-0.00032240481965743056,0.010359661405344806
0.08191338591194768,-0.0724856694825393,0.013101892374993797
0.024337968395890003,-0.010974650449936837,0.016503835006618478
0.027625085828993524,-0.06236463643073357,0.021805514249101425
0.035572503201446906,-0.06865656070852319,0.010385393567135557
0.002077880645464842,0.0005843416414938012,-0.014546758574540738
-0.05064096859675077,0.06731645633829275,-0.03153246289453726
-0.005437964703999602,0.07499197883273861,0.01802456829763807
-0.008608234259671624,-0.03275151876750247,0.008209315677483857
0.045541964155046744,-0.08187976570638725,0.013621056549909742
0.01659985284615572,-0.04578579186264644,0.008936016216650702
-0.020965646598352677,-0.003134621475014511,-0.042856847345141315
0.026193653352078627,0.05904868685716524,-0.026391547486603106
-0.08148292184503472,0.06677748942904362,0.01973432142219575
-0.05475048398139851,0.07913553344288021,-0.021286117282328886
-0.03541703554349324,0.07599515983531072,0.00140202095501111
0.045818937274965346,-0.04150137235641644,0.009231414788745831
0.012503620109778096,-0.0465909972306371,0.03745550250720994
0.01949871856397962,-0.07541821817822754,-0.009240291122873206
-0.034277296879977714,0.03927280813334698,-0.03715862307945873
-0.026473507059477083,0.10459883340718865,0.0013531611866338077
0.026873850315352485,0.03213268491077924,0.008759942339785508
-0.0026400019603477973,-0.039572607579710956,0.008825651757431174
0.03255969032632376,-0.0708939448798204,0.023016800449453985
0.019329802612603843,-0.06739369853837426,-0.0008325279207566615
-0.05918606215895892,0.021899365345219794,-0.043649085628367765
0.03876122927698511,0.07854303484920191,-0.005710399561581647
0.06937401552644301,-0.06750471855918641,0.011318933284127647
-0.013562919815045527,-0.06749288097810305,0.020721650172042194
0.03516237501981938,-0.026162457869726867,-0.008043303759411948
-0.06677500804996035,0.06375169556049075,-0.0418566304976644
-0.02073015215773944,0.05797200086587142,0.0018191515127221891
0.05203584316835547,0.007132068798110963,0.012179037353028496
-0.011932450926039034,-0.01599795261839788,0.008515575221834978
0.030959940676440274,-0.06942571844915361,0.01317321856208187
0.0051171371750760655,-0.018637872553830273,0.011808457451977844
-0.0009851351469056385,-0.03610953051124013,-0.0041691622114849985
0.020478749510292847,-0.013833699646340823,-0.044744690413033375
-0.05426320287413934,0.08950463058615048,-0.013720241838356986
-0.008339913759871136,0.05043758763229711,0.022932310834462795
-0.03989071128434174,0.009082309226948922,-0.004413806512781244
-0.03937331570453784,0.0014184068251580605,0.01670875885288003
0.06597366141362575,-0.025920798111191697,-0.02237874212965455
-0.03416969303235102,-0.007728761259852553,-0.0036504974850539457
-0.05941212609291799,0.03049701357525017,0.010668103014977772
0.12910214084380534,-0.030764493139252804,-0.0060394354659812025
-0.07572022556625617,0.0029102682156706833,0.004558756937878244
0.02724973557094664,-0.005597721175173528,-0.008579262282677424
-0.04073432611473815,0.030767937471480704,0.013830708614479267
0.048470152077059944,0.006818673586777027,0.005428328952168923
0.06175375705486569,-0.026764023546243562,-0.01874246225437456
-0.06278773281682548,0.04653371979012427,0.020142251363048626
0.07322841026668664,-0.062102114013972726,-0.01888783723299586
0.008674673626030813,-0.02705808543834338,-0.008133247728034206
-0.06613732143537271,-0.00532212303200255,0.025350983525122783
0.06490116323597364,-0.06888259249106489,0.002273014292373216
-0.06611482865888209,0.011488901380526925,0.010225010208141271
0.04572741745677653,-0.010439823110315131,-0.004765486259237287
-0.06983431040786965,0.045743304677695995,-0.00934818645363501
0.08767934707846688,-0.04751538231946179,0.0004058768643934018
-0.024497643902317283,-0.005153906875431484,0.029958242608758172
-0.034776663321165024,0.08871782942181919,-0.03860028508348139
-0.03806086433690878,0.04604084895771712,0.00505513007977984
0.011976665937797877,-0.07329860252768156,0.02734569639711982
0.10174147057645506,-0.08054779241087918,-0.02404442404434999
-0.12413983972602374,0.07611984921723332,0.042723429662970006
0.08697649397101664,-0.02827472119002985,-0.009204396033375334
-0.09571355898247241,0.05967214531927527,0.013083224800430789
0.021391816909463443,-0.012008988857186903,-0.003014016928620869
0.03307660531593536,-0.007796271250909488,0.007579926281329738
0.005208879260712236,-0.03900101891265418,-0.015620655912316234
0.05157753087171598,-0.07003335173377209,-0.013702509496949788
-0.08549178429472809,0.012899085411421384,0.008988700586413764
0.05811838975278086,-0.03894663688265397,-0.008846494424890192
-0.018733370700838844,-0.01782459483140484,0.010572973540371334
-0.04064327314118418,-0.007688219529502237,0.02768929262904317
0.041636796859967955,-0.028332890837313503,0.045042945980547484
0.03304281537286121,0.04392389826144396,-0.04154116609057801
-0.028207455427940606,0.06297176447892787,-0.02805910716864445
-0.09089184326000535,0.04816675335898493,0.02556659774374999
0.002085438254145146,-0.011364016474861127,-0.003135870846485079
0.06801796543765284,-0.07853474247465736,0.013742180589247067
-0.035975489105427375,-0.02177602190347889,0.0009548230642370294
0.07758004317823355,-0.03381823289738426,-0.00864440183658256
-0.04975112874152241,0.03395179461417492,0.006489377989404204
0.005742853988801495,-0.01244457666740176,-0.005910131543636239
0.08347531905300223,-0.07414197597083125,0.00392940342168675
-0.10475298849919101,-0.036028494850379636,-0.00023945915830037815
0.03760830555712747,-0.10289591070035946,-0.011037360078003886
-0.004411651276595159,-0.04852229971166466,0.01791055060251645
0.02350124896672976,-0.009367844682025957,-0.007839624038153963
0.028757359693795774,0.016623957047203937,-0.00971251720162135
0.02659692228114302,0.004952634971997589,0.001198482514520218
-0.0019959410169181416,-0.00994888538400212,0.029433117901733582
-0.013443492429309013,0.01304882948939945,-0.0364699189335651
0.02595068417616882,-0.011233609746462618,0.03695766777254217
-0.022765552263810093,0.007987804569682093,-0.0180526824249364
0.006186407376944645,-0.0024929928646221073,-0.00807143077647581
0.00843733698774143,-0.0031053860799936375,0.021865214083898753
-0.01683038268884736,0.008583790661727805,-0.025638424318196372
0.01582785629272488,-0.009801275700506946,0.01820108454736294
-0.0068665722108283665,0.0069015522112826945,-0.0044811324299988565
-0.004519056713106947,-0.002295139994450152,-0.009194402136997636
0.007589246734507799,-0.0032389791779732103,0.01830679450824947
-0.006191922906456252,0.006670509666888785,-0.01963008148099089
-0.014152991704237606,-0.003393642676716701,0.01775587916342954
0.024572629759726315,0.0028534239240394174,-0.014751749256748627
-0.01101365650696979,-0.0025516699066398226,0.00987533828442469
-0.0056692801172191255,0.005343690932832306,-0.007770098418990637
0.0179721638963659,-0.007055739069707686,0.005477349668687768
-0.0206739183327689,0.0072885455018462195,-0.0023808937099013476
0.013235540338348645,-0.00532148891011543,-0.0006931936822479013
0.00043439033970794504,0.0010069586130891245,0.002133109905411674
-0.013659503381207937,0.00369075377407068,-0.0020598723371592596
0.019835548964188796,-0.007911820923461495,0.0011617165815481156
-0.015824713344068157,0.010249662115184528,-0.0013380523520103076
0.0034256351361822038,-0.013880895883222406,0.008457739887720434
-0.0070560746111015555,-0.0004672539455399904,-0.013870613333518461
0.02104117456535054,-0.0035601068465879854,0.0014896581776262779
-0.018235473556275958,0.001681830849851321,0.008754896106204016
0.004208182381800237,0.000827624342011335,-0.01459661205578567
0.012257551932653654,-0.006747743331458821,0.01578473099308218
-0.02252432791241796,0.010296852557932508,-0.009799997910780836
0.023223433888890255,-0.008869388937943088,0.00038352300811772273
-0.01335080591558235,0.003920187174995929,0.008442751076484723
-0.0058344194517057635,0.004326383849051586,-0.013292014524331444
0.026281831258633627,-0.013644940883334723,0.012980953440161005
-0.04333767022547051,0.02141372907021612,-0.00919752116864151
0.06170323377196432,-0.028215870528979274,0.004804002947491245
-0.06469922733035863,0.026859719334422584,-0.008068238780163337
0.00886601463098477,-0.0028720239618779415,-0.013272273909990834
-0.010199180946743939,0.005110424087533335,0.006582433343536369
0.009419020662294192,-0.005041316944055132,0.0006054087305541198
-0.005948168671566614,0.0030478881497176284,-0.007162760738624466
0.001380939865983918,0.0005817144846524222,0.01193165815740211
0.002035343686483038,-0.004187336573381648,-0.01195109633975257
-0.004078643149668224,0.003532984695930306,0.00592660431695674
0.005063765976556816,-0.0011372840897838036,0.004052052992850071
-0.004652979616817803,-0.0012994544939438457,-0.013786479347805117
0.00350512941257618,0.0043590916760145315,0.01940103481150284
-0.001587788731604013,-0.0046059709367962665,-0.01804038698349438
-0.000674288943856842,0.0027969923464325305,0.011460131112918416
0.014962963224939394,0.017390341844530276,0.032457833936412724
-0.005733145125349495,-0.012666109126008185,-0.022626969661979808
0.00047204896741909837,0.011414902654334716,0.013190180453286326
0.0037994543616633332,-0.006915686051357303,-0.0014470513686777459
-0.004994089628390898,0.001590614838145666,-0.006933688642246789
0.003156392619834622,0.003113151585983247,0.009742702530683985
0.0004628869711853693,-0.0071188624251693235,-0.009436464978732585
-0.003432066304922166,0.006681863819916176,0.005120120103345458
0.003951328691947308,-0.002440340783065774,0.0031744362628779096
-0.001057483402701218,-0.0016670307753389717,-0.009732873476496984
-0.005386647558069807,0.0061091259406782115,0.012687663036151976
0.016035045407227642,-0.010099618631792307,-0.012636481132913388
-0.10269912475232658,0.04720326751387184,0.0443458365803898
-0.05299478883761745,-0.005572767506763691,0.0011716559943323402
0.0031474384238817914,-0.007923835390233894,-0.010420425224692926
0.0004069610826690111,0.006929614193627882,0.0050575458901493545
0.02762728410728694,-0.006156858579730048,-0.010550238891911916
-0.009127178120181857,0.005391324269317133,0.007497608850458887
3.9603147357043593e-05,-0.0006494279861167995,-0.004249760844338977
0.0029286679260641015,-0.004988894736308577,0.0015664196982077727
0.001163258997316008,0.009897825877537184,-8.54004325653683e-06
-0.0013268363330572286,-0.011906398761269688,-0.007116338749348816
0.02526407426779614,0.014934423465981636,0.01341296090602414
-0.004790509198499233,-0.006799457752097851,0.001673864047008726
-0.007129818326053455,0.0005892900437279754,-0.005221424672699395
0.02434882098518168,-0.0002020794304250298,0.0031864158057547335
-0.026409851034046077,0.00446220176449031,0.02134889047879325
0.01568932194456491,-0.04114981934367265,0.0006195529994314066
0.00983916739296544,-0.034991165607898014,0.0038191414268136455
0.016140260962606064,-0.022059902668478473,0.006433760757552699
0.03700798609535836,-0.005816017085640279,0.007433909882537837
-0.005113580111983609,-0.020258744728333732,-0.012649591212207954
-0.00492153788534299,-0.013817568853172127,-0.044575782391314586
-0.04175679208952877,0.09250582669359328,-0.005023780873268449
0.005355574110517111,0.041683234032145564,0.019925614336236172
-0.013450641231701409,-0.01757350239567263,0.003859667469408497
0.00223986650387744,0.011634732913921489,0.007622756278853254
0.020369732363226423,-0.020761295342643538,0.009802066401109203
-0.0026336246956909747,-0.052886281499198266,0.0012176552212821486
0.03804170447244129,-0.017152878200045317,0.015380119977920822
0.029085872493491517,-0.016248992239278656,0.004096391078545458
-0.033332529604377034,-0.02482087292631778,-0.02978180081763369
-0.012032478201100833,0.03316946569989966,-0.02714204989037211
-0.01517955284455648,0.07204240940129357,0.0032291338456185772
0.04735994819178971,-0.012544800165520122,-0.0014166326573731777
-0.05267987080089169,0.005518456127859485,0.0072265759792237115
-0.003855638906015438,0.01745838574237384,0.018733781706606643
0.0047163601335703,-0.022217759074437123,0.016374631748219473
0.001171863165025433,-0.05802346310699807,0.0014231382084251044
0.050472338940256406,-0.02998010118983438,0.004646032170737002
-0.002275154247874646,0.00716004180596558,0.01639974952568314
0.0159627496562493,-0.033036683701652414,-0.011519147233544056
-0.011738043290796224,-0.011198962186118606,-0.03417454464940388
-0.04099217065362482,0.03391306552919637,-0.019955386722426076
0.012000057650125594,0.05688370554783925,0.003396931546039706
-0.03338472019597687,0.04768100913083095,0.01576739223461536
0.007154900517157444,-0.015290511273620147,0.00011997606760987684
-0.046284429197431545,0.002016839673638663,-0.0001556776849248407
0.034639094882032914,-0.056819434296855514,-0.0035683776869309125
0.022418644597740508,-0.031540714677986616,0.0009712495242899639
0.011382980510765235,-0.00020878986915215045,0.020002070009207784
0.02373502536483704,-0.01575117590116069,0.0046544108312644075
-0.02315117093207294,-0.026911715862151523,-0.01064980255450039
0.002338912522210343,0.0029702893566192073,-0.039914372760773975
-0.020463589105986384,0.0909500757272872,-0.0196910603025683
-0.03801407190699627,0.044263048681959835,0.02221296933669844
0.005787099869663907,-0.02477079767308023,0.0016681439293953458
-0.011361372747204017,0.012905854633485531,0.007410127874380803
0.02162052398501675,-0.008250128004443597,-0.0034743840893802606
-0.001904296335714567,-0.04045544025371591,0.00041865151590708
0.01913610556967757,-0.028701529953757972,0.01849459721199411
-0.009755305471248438,-0.016909028806116666,0.011526771721435368
0.029400141991511367,0.010803255065774477,0.027741613469725535
0.04698627319025695,-0.034316612160404034,0.006647499148556389
-0.059408951339826294,0.055021426786962646,-0.023855218698077694
0.05623763907564401,-0.025654840733802895,-0.010106413457800577
0.02290737895429188,-0.030745751306329023,0.016649972947676478
-0.011949262266820034,0.04112696462334636,0.037220299783979255
0.028838880352772378,-0.03310988410738522,0.023382719655186547
0.027568521688337913,-0.00894867333422674,-0.009016690775218265
0.012728151823025297,-0.00359082369780964,-0.02008621556044869
0.07478944082187255,-0.01568682181761235,0.008896810045303273
-0.16993526702620915,0.07043728857949247,0.018737439042001862
0.079580403456807,-0.03322758412538043,-0.01934664684762801
-0.0037799095258721042,-0.01785447462275532,0.011569632702554303
-0.08764618396858892,0.021130165220104434,0.011594646546240777
0.10132199171287457,-0.03192343843769051,-0.0023631486923942156
-0.07265309997459321,0.008198351438770082,0.013620138577594625
0.08034100761382022,-0.0651775898842674,-0.035078216281754344
-0.013723097851337972,-0.003263176428338982,0.012550138558876574
-0.06656600674647442,0.048202505965747655,0.04940830239578013
0.09958538804344279,0.01302599707303096,0.025044404574022083
-0.02487780983801382,0.031379625959366164,-0.042606945024813
-0.0193956722510931,0.01652082445129421,-0.030788645979738887
0.006762671559406904,-0.05477925299826821,0.02943674023662529
-0.07004310300211616,-0.0223374904135518,-0.019295419390451686
0.05495714082730804,-0.007687570414451148,-0.018193722548439477
-0.02667988036511979,0.03813898445412013,-0.0032390742928186216
-0.012605838215555228,0.013032226581824844,-0.02016132657673606
0.1040958142553243,-0.05976143450893692,0.004748228733683713
-0.14352872532068411,0.052107570837606684,0.01132533648125581
0.08245241828607637,-0.03632246552523346,-0.01950609231302333
0.013259370410679896,-0.027278114871127274,0.03176188318181195
-0.08424477819878,0.03022726486928673,0.0025004474695122167
0.09625152321267962,-0.021702295557843806,-0.012987223612452765
-0.0633055201232803,0.04406668191381744,-0.018997313818559736
0.020551561520824987,-0.0163997890433972,0.010566418118854433
-0.006760301070925602,0.02207697463646507,0.017888868030818485
0.010835207404981166,-0.01568673835693264,-0.016927108645761843
-0.017602013468242868,0.001587005007893466,-0.00015367893918667372
-0.006134072317448357,-0.013962801980980783,-0.01108824014720573
0.03998789936971056,-0.08412741682710739,0.01062082847335509
0.008501441620546616,-0.0016758055038458147,0.05056053711883361
0.06160374070079618,-0.04447109418815417,-0.017530963333858365
-0.05962226970961307,0.030021323891771153,0.006478868254665055
0.014330896185830446,-0.03158907327852338,-0.004712360053520364
0.07240595920127549,-0.055063471007799535,0.00796730587347958
-0.10382561339189263,0.03169805988971194,0.04123050987058138
0.03982086503598693,-0.020528253557482706,-0.03604710417725526
0.033974086707711404,-0.015305196406015763,0.006191381625919621
-0.022516021276128388,-0.01888898405795595,0.014983708345390421
0.010780977400430106,-0.003775813722026577,-0.027949378134868284
0.029361137496859785,0.015433273073578935,0.042795720630498635
-0.03344932647750395,-0.015609197585929435,-0.015601403662344339
0.02097176038954809,0.023097665127956475,-0.010785376004684037
-0.00634391534395184,-0.012903775787835092,0.02195864499031596
-0.007449885871769879,0.002575510536457622,-0.023444070190105838
0.018166708408099367,0.006139863782070679,0.014109471603708224
-0.02040951443215686,-0.012508062801070759,-0.0002118807667141131
0.009916015650523644,0.010525639389433208,-0.008258207370581742
0.0011106168009498286,-0.0031225580451151305,0.012783007451796783
-0.010975806545168412,-0.003677531507657563,-0.010970032947492697
0.015032154365063994,0.007123860961782904,0.0038783386351405524
-0.011121724793618792,-0.006166720646559622,0.0015133276704356244
0.0030698612805820195,0.002127268733288311,-0.003574816399224463
0.005811122966192401,0.004035916811261912,0.0018802611698702928
-0.012792873632514575,-0.005037939508562645,0.00048661216785081
-0.013382875026150744,0.01145612071566111,-0.00975615748249124
-0.007051450100793999,-0.006653114336086384,0.0006427050652509732
0.005405157575449068,0.007911582724400849,-0.013707826025913318
-0.003585270376604361,-0.007101463939544651,0.020219983070955475
0.0016589266865520277,0.00039779899074560187,-0.014903507369462415
0.0013851343499417998,0.002412828711837746,0.008056722243503919
-0.004089144678403676,-0.003936067759562652,0.0019476454152799196
0.003488451790818637,0.003655678686085252,-0.010597937013552007
-0.0022087944066281604,-0.001741090997741107,0.014493319026630397
0.0006648992896876823,0.0010111089699990521,-0.014244858979884993
0.001101470909004836,0.0017490461878813478,0.00588883046937729
-0.0021981392389733723,-0.0011210328367969003,0.0026580264278768494
0.002134891944938677,4.095520009965599e-05,-0.01169087477328094
-0.004028918815799403,-0.0016859572909202585,0.022214559276189066
0.0010147837710918301,0.01848083001265268,-0.01717733183540677
0.0020267759752743194,-0.009309957504831396,0.00655746744400413
-0.0021581486104899723,-0.001471231831319162,-0.0040491843949430895
-0.0006561514931309586,0.010160937810021513,-0.0018647897154803563
0.004695763851628121,-0.015511120801340421,0.006637648532397598
-0.0021619204806440076,0.006600697318253655,-0.004638437827144366
-0.0006894055584684188,-0.002650983089020911,0.00907418048555998
0.005062510598089903,-0.0035066507033036194,-0.005548298270721862
-0.0037085564118983535,0.014954813335094476,-0.006489250750698464
0.0024495674852539565,-0.014557172517181687,0.008506755030308372
-0.005775911190327094,0.011511327265960922,-0.007358528536993061
-0.00022970744564470094,0.0025525091512406013,0.003329705247157525
0.010418032280238963,-0.016951802558437947,0.001830150724084451
-0.02422441616095907,0.027275506244024847,-0.0068334429549010405
0.058214928825633463,-0.03599372682970246,0.008720092097120642
-0.006816795845459403,0.017677214363025592,0.0026345320686871274
-0.0002559854042035076,-0.0050745210642346664,0.014121861188201709
-0.003187109738293968,0.01046562239893717,-0.01370965215942067
0.008398519439362529,-0.007898102768068072,0.008330299775406506
-0.00822478224303767,0.001147710956669081,0.0017334952986131484
0.003621033998684109,0.005494441872315932,-0.011182128913854726
0.003020281827908071,-0.008182422454021156,0.015566013967740457
-0.008210720523554794,0.004967528146590498,-0.011888220415911428
0.009541219134310027,0.001570778916712281,0.0013605460361750849
-0.005585749717593498,-0.010323445760914379,0.013343933569947973
-0.0012964482295780384,0.01691771873129518,-0.027445432942798116
0.008126945465042086,-0.01895990487838521,0.034833150176420996
0.015430940172605158,-0.017363884709697595,0.036549449847949535
-0.006957853055212451,0.012318652747593285,-0.022457928664700796
0.004095780104007404,0.001934538621516106,0.0032824373951891566
-0.0014893949703657376,-0.0070973850259104495,0.006266834844274932
-0.00041815714334447133,0.009427790173635686,-0.010609117302801839
-0.0022570937887462644,-0.010535413180738789,0.012603966635984388
0.005585673835771417,0.006484368559939192,-0.00489893489994206
-0.00398603095763952,-0.0002795255983097007,-0.0056351035974918
-0.00023640532485163276,-0.00415529898967649,0.01028279572197616
0.008397787392060986,0.00813820750177056,-0.012231861767637362
-0.01836869651285882,-0.013149143640277194,0.01854000641612682
0.0226493490281739,0.017097478854061016,-0.004750991153224861
-0.01404491972278625,-0.007721535009337633,0.001397241845593972
0.004442082115795562,0.002931736121932234,-0.00266151751477296
0.005278508965397501,-7.785356949313035e-05,0.004494143666679251
-0.010650030865109478,-0.0024971388331316907,-0.004078417177670501
0.010109568879637439,0.001859508189624751,0.004300901445048261
-0.004473639943687057,-0.0004869684064532056,-0.002718269656784812
-0.003132809381541307,-0.000837815639966172,-0.0009883087383547105
0.010126001636111475,0.0013355299591812423,0.004627181028023533
-0.01075812593876085,-0.0006682570183108729,-0.005973353092130066
0.004003389903527806,-0.0014727572545673963,0.005443364146237688
0.006289387963331457,0.005692707775706319,-0.00563040409692637
-0.018928739385085293,-0.01017264252262318,0.004971454068237588
-0.0398331945178485,0.02708688918163435,0.013501395033818715
-0.025583852087917858,0.01473815208165282,0.009867018907521504
-0.013802613754170622,0.03506151819742833,-0.0041362431968374105
0.03979721379512875,-0.00446647275778511,0.0040263913150162135
0.031248751578051327,-0.028530503921152785,-0.003151639479545069
0.01705368706947261,-0.026305718172399316,0.014792204248202278
0.014558702694347201,-0.03222437212381707,0.004935581667596885
-0.018934359324162247,0.007297871950519376,-0.026538669317002824
-0.003931168181383604,0.022601411296316473,-0.004863875944970137
-0.007322982304742658,0.018788606759809933,0.0035955104125910946
-0.04638966174520362,0.014903272068964874,0.011092950249868363
-0.009636969058369443,-0.0004859584391713771,0.003031729818491073
0.0038880097190933938,0.022537758158859396,-0.014568771410564339
0.02279354112532833,-0.02050947880870721,0.000526354313723127
0.0645279912663311,-0.0472559520235823,0.01860084292388408
-0.02949479238768743,0.003906575611842537,-0.01762366213892363
0.00827835099260371,0.012939768086254272,-0.01920890021650004
-0.059321875439316885,0.04062484497262601,0.01849462956417233
-0.012959994499543931,0.015329623222046349,0.010176099866815677
0.0418844849322208,-0.004543931075551224,-0.0003657270264853943
0.008082008769361389,-0.011228908746954883,-0.007516325572521144
0.036056146172981245,-0.0367983102683182,0.01576731669388962
0.00991353416734335,-0.020541858203593846,-8.959587628692024e-05
-0.02412525651017882,0.020255105077716076,-0.030226126978038163
-0.017503568538514543,0.024548174679882906,0.0031099230531997438
-0.043288320271463177,0.019433335516739085,0.013540645525226394
-0.013683877784620655,-0.0013831531219520507,-0.003064640274479118
0.018902034975467816,0.007028768451610658,0.004051509372764741
0.0075041284889194124,0.009636637647623512,-0.005267524659538566
0.027760268175206843,-0.02405779525684784,-0.0067476231003981285
-0.011862649828512428,-0.01058737792062402,-0.018272276722637273
-0.03349521249903502,0.004249603490820283,-0.001855343876638835
0.008260722330482966,-0.008486049185742535,-0.02019750516725362
-0.024086802915623786,0.009724519773044612,-0.004830020741095986
0.024311884382918425,-0.013983866077760398,0.016622648750317277
-0.03715217841058078,0.037299396731612096,0.0013404995590355151
-2.0648470639643424e-05,-0.009536774346868622,0.01346355984916359
0.07926451021396091,-0.025261055738299697,-0.012596816661325533
-0.06260224609662515,0.04197610527717637,-0.02766006957902653
-0.05382914351235321,-0.014505468669736921,-0.013519921024757492
0.024868631754090015,0.019568569154716102,0.0012246552627308543
0.024922867642939328,-0.01886914870680271,0.004746871082287014
-0.08331883192426287,-0.004072493339402989,-0.01900453692057087
0.030383036088330154,-0.012393124811070341,0.0028249723089112315
0.05551820504606207,0.021708616310744635,-0.03897895378305944
-0.06488061719857935,-0.007643167632298962,-0.014728558427139674
0.0158574365129408,-0.04287293529784271,0.0385362177882666
-0.012443027087906525,-0.009418218972259597,-0.010339475095553862
-0.04008702727339778,0.011886050071058599,0.016650144494947824
0.08771776480714415,-0.05655988475865427,-0.033246818809154303
-0.09705389875733494,0.0362138492351254,0.012849847146698675
0.031055315573230532,0.010814013220639053,-0.003877031188289217
0.038080487628963586,-0.010304800513193841,0.021910122883379044
-0.026500488184689162,0.025655694332580303,0.0266588577004514
0.1189947991643856,-0.0058405980286970055,-0.01752885472328016
-0.1411562799463278,0.022467198736808885,0.015803949937528528
-0.05350669529171209,-0.011656987049612818,-0.021600717410145614
0.061043327368698636,-0.006209524126517336,0.027463154870333815
0.036930446921026955,0.02184187841513187,0.02956349994271525
0.00043199079158308396,0.010328365872794476,0.022918548117659795
0.00996031801067488,0.02430836913969648,0.07574977108339295
0.04547205591431726,0.024618702141046524,-0.03033920096804598
-0.02747888333668179,-0.015524654273398756,0.006329847873788032
0.009733920371007794,0.0012523938289287877,0.022693099608620253
-0.07174092769822918,-0.008563789004957877,-0.011009075851645032
-0.08532633385340295,-0.019232954767066168,0.003937215501762012
0.03640539000061749,-0.012955277662788443,0.010677006598972659
0.055131133063870644,0.025672795795823426,-0.004180061583849864
0.031301844689353375,0.02202291338697062,0.014863751764570759
-0.034406673444272395,-0.024317921502920573,-0.016661149882120897
-0.029140762037974315,0.018176140715731523,0.0015149511396450616
-0.001842985681482891,-0.016726142147513154,-0.01012875055895437
0.05589387965485586,0.03370220655323376,0.045221135623539466
0.04278539314791429,0.02755283442625407,0.007902574588098914
-0.0035671692837145556,-0.03887131189356946,-0.001721010394791475
-0.016769279960594463,0.037925120592567196,0.037526365389128666
0.01772697073832824,0.023926805056612967,0.028739691785862338
0.027644755209905815,0.009323193612046147,0.03378477568411718
-0.0026069030929207343,-0.008566280107762243,-0.027148486370334485
0.01498688338214608,0.02182682452508909,0.0031525040675746655
-0.013376238668787063,-0.016680786200099364,-0.0014440024236758967
0.011576338865851982,0.011753472087469912,-0.0016253166227050064
-0.00019837479840171233,-0.0037527033176575943,0.007461057000519681
-0.005527273916531084,-0.0025548784875044075,-0.007694175700707289
0.007509980097820642,0.006771687547015365,0.005462844878800812
-0.008470577113999806,-0.005515319201044342,-0.004465160167886947
0.0068008996688602875,0.0006650588520599962,0.0014537026525141268
-0.003097934480131882,0.001041544222341077,0.005020691891604838
-0.0014609903696198748,-0.0009566177002574992,-0.01093108650913651
0.008327120753579317,-0.005260303415295204,0.015971489874375452
-0.0025166557163132123,0.008332183990410275,-0.01047858970204062
0.003698802856844288,-0.00657384684592521,0.0046889984670412345
-0.006167484783554206,0.0017521624756558869,0.003993994763425749
0.004803789299178431,0.00625941253796925,-0.00840036629308568
-0.0033777042265753427,-0.009428904835515967,0.007745389339081814
0.0012188137199198638,0.006521626903323626,-0.0029699466697544856
0.0016618958564681827,-0.00012732095667652695,-0.0033552529244713415
-0.0035265794443724704,-0.006937923566547183,0.00933882090671549
0.004740803672828293,0.011567310262563225,-0.012804624454657052
-0.004636569799426025,-0.011938889552027265,0.011593198424372108
0.004212325302962775,0.003614196600715136,-0.012369156275630979
0.012132687733104788,0.004284384031892203,-0.011306133896978258
-0.0014475280578346702,0.004788119437843064,0.0008252312953919841
-0.003705112725914456,-0.008035716481559974,0.004787528739913037
0.007409006107280285,0.00428927072150811,-0.005219391873659569
-0.007586623457972435,-0.0004083015842533622,0.003852593473486775
0.0033728684550036947,-0.0029690090450440547,-0.0015339536218508944
0.002877823594510418,0.004353659170915511,-0.0003323437860720812
-0.012158957764163019,-0.00033564765047268256,0.0012482383755766475
0.018378631364224362,-0.0037232403307045454,-0.0001318972034060011
-0.018810646821452205,0.008842159547498462,-0.0031898887042771215
0.011356749682139275,-0.012912511659631129,0.0037343665646820596
-0.007608742985720057,0.01969411478367858,-0.006902063771411877
0.014935601367336092,0.0007539555914426788,-0.0021469229822746955
0.00532317718869872,-0.002593542761431194,0.005047584043329116
-0.01765179794907827,0.002113239747443791,-0.01077043897219521
0.021782480362359836,-0.0033905296227987707,0.012512456268224587
-0.01704925016999268,0.004704924623218497,-0.009750477402512328
0.004926665616412285,-0.0017210419494248959,0.003502455919376862
0.008881582315751948,-0.0018737142400555994,0.004036489967260087
-0.018628645925017055,0.0022724184549807337,-0.012722902893001183
0.01992473739036353,-0.00031556669876583847,0.01843553087413465
-0.010074657510378154,-0.003028957445644586,-0.017818573391913898
-0.005813905353463043,0.0028937112484579168,0.014677711851389467
-0.004994778222765841,0.021314896948477158,0.03682551831098217
0.01161071663028396,-0.010461076736845928,-0.007883535961918263
-0.01646923192166863,-0.0011047658293793306,-0.0008628879106219226
0.010352216545307005,0.006289280554240444,0.008985725906206112
-0.000869714409665804,-0.006742134063244701,-0.008418464098755973
-0.00785428379209691,0.004878725508775678,0.005267321524779664
0.012404429121784277,0.002264549595947876,-0.0011226321636297527
-0.009063094450878597,-0.007767955421229637,-0.0025755655296725694
-0.0022158909155176433,0.010325568867009485,0.004538570907932065
0.017199769037296718,-0.008705988029607556,-0.0003667158359466582
-0.03467259329307939,-0.0010884158043419374,-0.007986741527169352
-0.009870096715562344,0.014040581547374788,-0.010294842771651748
0.013895886319548306,-0.0019957604424295015,0.011287190017288463
-0.024048935218108587,-0.00774484276367153,-0.010715419484682309
0.020194368001912003,0.011647873764092945,0.010206581692440105
-0.009190487251000294,-0.010149636474155696,-0.00602535682514109
-0.0037456845107306505,0.0031464888432415654,-0.0006386489172668167
0.014256518381437199,0.004325370900257442,0.006853538987927705
-0.01826488897648073,-0.00936014667073163,-0.011127045047071946
0.015827623706028814,0.008242122275680296,0.011516822067442645
-0.006448927567736823,-0.0021522600894159426,-0.007529426943642043
-0.007512996734957965,-0.005130587340758237,-0.0010838671279783064
0.021696930592735544,0.010225790964093873,0.011241044821993347
-0.03321802182370977,-0.011890938994733773,-0.019256400525119927
0.04247136196423355,0.009803965232501127,0.02897407619620495
-0.0785381220860233,0.04689402592113338,-0.011738384742474576
0.013918710175571489,-0.02995005815365645,0.010331466009463747
0.0070212614245783915,0.0025523010050507895,-0.007304382659563634
0.03366666832465687,-0.0009497030545980202,0.0071600189683744195
0.03446652330597448,-0.01133545791016106,0.013084091316081181
-0.049817945831180876,0.018683319995964287,-0.02263931376688169
-0.002599659078822949,0.009065956813973281,-0.007512190829259814
-0.03923713264111046,0.013740382938740324,0.006489426103272283
-0.004129619002357022,-0.016452102385797505,0.005880478910541421
0.03748674546585429,-0.004707405990103879,0.00595679109481519
-0.011342342854394595,0.008779825489453929,-0.0039007759273582826
0.05858727179945232,-0.02700355293138698,0.012939624121295804
-0.012349119205460907,0.0062876830381462315,-0.014308082520433417
-0.02119471868115346,0.014566170155980954,-0.01679383145607912
0.03253870706136952,-0.0029360220826505903,0.01117175966862493
-0.03970967193914164,0.0329910258641702,-0.013476474699583095
-0.024604034837447716,0.0006002383600816636,0.0037701834248938682
-0.01338988509590758,-0.011870911437515308,0.001092540317756496
0.02821258213233474,0.001379326449819987,0.012675437959588972
0.05877867738603189,-0.022064729918740027,0.005008117132486851
-0.022727683021196775,0.009383328492892834,-0.016471388888164667
-0.06246791656439682,0.02238884352094633,-0.0028922575576758747
0.00024432765603452436,0.007476425855122025,0.00886176403729912
0.012834363507250951,0.0009981150841768538,-0.0037968623960746893
0.04684038812536543,-0.02841034446813192,0.010611704932830517
0.008247516165057516,-0.01695651960151328,0.004306149867649618
-0.038556873300816134,0.0289427524086907,-0.022535052952384907
0.013561246986432015,0.004436059020683551,0.003503513860448452
-0.05511412896681439,0.008766003961044752,0.015140113475670217
-0.013234835146601186,0.012132420558311124,0.0011176816166119218
-0.011894371426440634,-0.03565650868129309,-0.009729762704105534
-0.037713436417233855,0.007749752336180164,-0.004037678180595538
0.0003792407580003529,-0.0047462773132743614,0.003954762035154201
0.03770602921340647,-0.012850009472369507,-0.030235427623474746
-0.03235716064673654,0.005863057676647811,-0.007769985545294716
0.07355252136145396,-0.0345405659299025,0.0423135595021289
-0.0022095037720196633,0.04341094727303516,0.014782189966342382
0.020398036285652787,0.0005049231593285616,-0.00864489033553889
-0.05660267457138589,0.05690116047817356,0.02643080024223207
0.02554581502192504,-0.0025918640412149665,-0.007169151853435501
0.007870071985484341,-0.017616716101120682,0.009574233376942172
-0.02402695453619089,0.005394010271597157,-0.0024962554302364794
-0.003710867476102567,-0.006882510995096035,-0.02692788420874936
-0.00477292897573542,0.023610226913280713,0.02234539415620953
0.061864850684109074,0.023096534305231592,0.02160628432140046
-0.03918145726914277,0.02058336358577483,0.007063800613607424
-0.038390178108093774,-0.003863710171936377,-0.00973494164951751
-0.002869422885894214,-0.0122452300950345,-0.020732429045693182
0.114834258710352,-0.0372143496486944,0.015911387285691397
-0.01975659193736709,-0.0063246558317186785,0.0145671583197385
-0.05905893124312288,0.04434483904743096,-0.005557972282904219
-0.02063245756096513,0.011026914466522438,-0.020503293204156715
-0.002032365267148145,-0.014901460720126582,0.0046958505606788815
-0.012879497201416464,-0.007376534698893569,0.002884385811456308
-0.017134666828181083,-0.00045563067444655096,0.00511812440822625
0.032503697904364075,-0.020770484037188546,-0.01639061374921129
-0.06033095767972195,-0.015236484286814586,-0.02023907284628649
-0.0347374895774414,0.013893875994367805,-0.0072263820906789894
0.05101265508764962,-0.018933256381100903,-0.02153085403807941
0.0006229990948474033,-0.05974056795719178,-0.031444650836712766
-0.06394287760615787,0.033034952824645955,-0.03057225703463099
0.012802558677660864,-0.007597425707284812,-0.003619074524841094
0.0024745605846647027,0.013794424965787921,0.01642704501788137
-0.02579334578522802,-0.028443928300046165,-0.015966810391401874
-0.0952402657263724,0.009911469346202646,-0.017950768585120305
-0.010707800154860248,0.008026726731630041,-0.004104410948308886
0.10371971360208018,-0.01694092957143893,0.035007978390338895
-0.033544237258413205,0.05121628246251099,0.0046576890538122286
0.016332470418115367,0.009159494779629006,0.01798800962001997
-0.022514993322891877,0.030142641365839287,0.020476505856885006
0.04166372855136905,0.021010581173587527,0.009717569540734062
-0.029655051250613046,0.05315785485124681,0.007017295801469257
0.06266703808140456,-0.03409489811234244,0.014985404256643799
0.0004362817015391429,-0.024261139116138607,0.00832840121043681
-0.04243725983184189,0.02044550259427731,0.008687275961394158
-0.004065609808353336,0.04339142763697227,-0.033535752121486885
0.020089662359920914,-0.007231344776552716,0.0017849793479333244
-0.0083936013738699,-0.01943729597342926,0.01400502666696236
-0.003996053423365515,0.0283624703179613,-0.009520995625755726
0.014817909574919396,-0.025697722454945327,0.014077342473553595
-0.016309857132850707,0.015881707363866043,-0.012557695524394601
-0.006486240604327432,0.01423822090993827,-0.010904990934858036
0.009887859735776107,-0.03264871538827853,0.015676776498907873
-0.005011857176553209,0.025184861565303307,-0.005967265092998686
0.0023792269254706965,-0.00361173296569943,0.002829790643917281
-0.000553540502656066,0.00473219190310788,0.00984723103753401
0.014087814748921937,0.012142494722182082,-0.019646810311447882
0.010000116365460448,-0.04255825942356992,0.015651274968455024
-0.01310275691627541,0.018021316020190893,-0.012993147703528798
-0.011391504714374575,0.00686922201610222,-0.0007238057112146624
0.03459535301708973,-0.03925077952836317,0.012720464299289774
0.00935211639296111,-0.01872909166486333,-0.017403615490030153
-0.01777617332318285,0.021930136628058657,0.0008418851569642335
0.01497341025350468,-0.014380988147906242,0.0030665911055239537
-0.00717061618053102,0.002296550103002883,-0.000901490877212972
-0.0036492756796766817,0.009941478758326034,-0.0028347887701166107
0.01558176652342946,-0.016664716843100086,0.00047110910245734696
-0.013422495852938346,0.016180240028292887,-0.006203913037683863
0.0031995262356899453,0.00904330505106064,-0.004022096201609008
-0.0020691898847885657,-0.01921627344332531,0.021802381356401866
-0.004310490264661631,0.009814847515957126,-0.01668867647611422
0.012551252527348265,-0.012182068440263925,0.009091851874402236
-0.011467992542320754,0.003803148086682518,0.00785812446394886
0.013720857137439084,-0.029845180222949796,0.05984854303298599
-0.009462782163882189,0.017576365131047822,-0.03169549681711252
-0.0013208500975627902,-0.004295276663083248,0.014236229871981771
0.00405618253295657,-0.0055309421427930825,0.0006752537466105258
0.004040208537259413,0.004147999029473043,-0.011135080005503877
0.0007425701290872895,-0.005892443353438308,0.01453546643147572
-0.007629452197961528,0.009431911294889479,-0.012446818209362002
0.0009085788359779216,-0.0023361767836361995,0.005597836712793246
0.004941619232533766,-0.004930221421254791,0.003254694509362481
-0.004642605015760618,0.008539483306763579,-0.01051384345310459
-0.0008640127805646564,-0.00622481572300658,0.012134732106847635
0.006296571310125721,0.0008522540680004544,-0.00729333019550324
-0.00977282530487097,0.004501179044046182,-0.0009817856732184372
0.008606345000022867,-0.00884991233166623,0.009368586287268995
-0.0022608597349950115,0.007289372375936721,-0.020639116177950133
0.006485612040137114,-0.01242990710557106,0.02234796629283784
-0.002652370039732359,-0.01329399848277426,-0.011640971389676461
-0.01983227985533298,0.0007831212402111352,0.013951469174133294
0.01842236970064331,0.0014986391066548997,-0.009415327771170984
-0.009862526607366633,-0.004439715981846198,0.006395166854117812
-0.0005926028641244187,0.004389728352941805,-0.001355242473248618
0.009956953671719063,-0.003000908188478583,-0.0030195693208237
-0.01263960576308006,-0.000639607217148463,0.0046056447745637
0.004777829484926413,0.004811030990825414,-0.005841908733227631
4.990536303790295e-06,-0.005323768369714723,0.004433251561714362
-0.006444084241426293,0.005596491201438143,-0.0009047039062562757
0.01220436294043681,-0.00042641210219794383,-0.0029330560347184545
-0.0107862089990804,-0.004601804119338974,0.00862942985167417
0.007662327246846434,0.0055891156910598105,-0.01455637387320374
0.004666164062365322,-0.009705487805276095,0.015845309945480876
0.00011803599548394252,-0.0034349456266556688,-0.005901326220874647
-0.0016830166997936168,-0.0020439695582239173,0.009847778667484382
0.0018100938098214432,0.0011772031748984336,-0.010132881900201993
0.0017908120574629796,0.0007584180557666961,0.005022028468389406
-0.0005394652896582973,-0.0031850252345019155,0.0017231386476837401
-0.0020928051406580565,0.004416478497691704,-0.006203733656528456
0.0022167735545355408,-0.0029417036024106864,0.006784015855704761
-0.0008131594593813361,-4.8377385109974456e-05,-0.002257283169700575
-0.0005708068738212618,0.0016168730776775723,-0.0030783980490327744
0.002455620134263303,-0.003914219524935548,0.006560684460296999
-0.002841100240096567,0.005002823191253256,-0.006314608966447994
0.0002698140244808225,-0.0030485714150163485,0.0027162104714042005
0.0016651407209398717,0.0005829455376612943,0.0037795363006742425
-0.0009714888667524126,0.0009352116954969931,-0.009718891566406755
-0.014839109862046266,-0.005204536971080434,-0.017681629493162203
0.0014422541999310587,0.0012112191410343332,0.01559648263380604
0.006982223320301676,-0.0013255926136580816,-0.012580552695862359
-0.010904434996431562,0.001702908889382007,0.00570823948649537
0.012914170234851478,-0.002136832587392912,0.0019230588893801703
-0.008651120413217271,0.0017098649808728373,-0.007928751226439627
0.0006530395556940054,-0.00024046240050203485,0.010489229153609562
0.007586327658362135,-0.0015808835175834222,-0.0081020435307449
-0.012582614524330581,0.002788713906357024,0.002153412565357499
0.011665456395525586,-0.0034219964953056767,0.00449005069501355
-0.006187861166629317,0.0038505194827268023,-0.009516027665608457
-0.0031144986307205095,-0.0010446941030208638,0.010625537568839771
0.013170972621646865,-0.004533940511055282,-0.0072898940803730276
-0.01686434300404447,0.007985213169848591,2.952303408105232e-05
0.012349819772516925,-0.008975938217092114,0.008949916468278075
-0.0012533666988518192,0.006667207067840401,-0.017444527258910013
-0.01086230272935923,-0.00015167167621227707,0.026174259962196564
0.06849097041628388,-0.0133907145123222,-0.014135640395361346
-0.019286113109104663,-0.020345549567029775,0.011954794820026642
-0.021909331537699618,-0.007169069090799913,-0.0029127033236111197
0.040473193257372975,-0.01050660849336326,-0.013682071701902557
-0.024707413907519703,0.021163345189407164,0.012812047981550792
0.012407571272201013,-0.0029183053953674015,-0.005407221960181004
0.00482420679985196,0.006300959009618266,-0.008645209181839583
-0.04282178359555622,0.02486205579986024,0.008739142198807353
0.02591692917406279,-0.012266940839743626,-0.00938591772636772
-0.029793839757112743,0.017451308180320396,0.0022070959493158994
-0.004966387866882138,-0.008171948406417134,0.011527515523218705
0.015020912411000103,-0.02002657926361182,-0.003205393579858741
-0.043676585203345976,0.009510630732376985,0.009601528685602875
0.03754463004713893,-0.02532373825702999,-0.0034762428704061404
-0.03159365294344378,0.006291343102726678,0.006408364041347036
0.00030685101753652466,0.0012294679883914621,0.0058968507728898
0.0020277661934476297,-0.010720240236008372,0.009055746235858822
-0.01053175937544653,-0.01647942746521069,0.03592389177574013
0.013677394131315836,0.005474671987105807,-0.0003809862013267641
-0.004261779971144328,0.006672293702451993,-0.021097233349834266
-0.019789548375420764,0.008414943262190888,-0.014991495318854893
-0.06041650856173669,0.008707061066850912,0.0013830796090130056
-0.002364676151692837,-0.004277731383682627,0.0007826735104591274
0.002239414724190207,-0.018235611635569998,0.00011110374772003648
-0.023524324330239096,0.015674821923981692,0.022021387094159312
0.017825377954011977,0.018493833310656255,0.010042008488593766
0.01952307757145759,-0.024649999554524404,-0.009649928044941948
0.006331315679567101,-0.009392495644092804,0.003910079474116363
0.05554073764948808,-0.014953609522216672,0.004540194418947772
-0.005389825247212196,0.009615730934297639,0.020953315883803197
-0.0022494146252055886,0.008335817462877902,-0.007324566914803139
-0.002282325188110885,-0.009448992671662193,-0.01805746212669959
0.020221298782657708,-0.020869038200766153,0.01228758392820348
-0.017538625543905572,0.03334634172188075,-0.016771822229857646
-0.02662219785100575,0.01658289811522023,0.00016967091031624016
0.01184802761022779,-0.0014207236294193652,0.02830756699534786
-0.012089682894272064,0.0353951268378731,-0.012734187965863982
-0.026589648994602446,0.019926696827046557,0.0029624239001893446
0.05819471526736615,-0.008933226029610098,0.011572979079165692
0.03777480673700319,-0.04368975028598751,-0.011886884441370343
-0.033243139855965144,0.04700125338485703,-0.023017400586641545
0.09245248880567428,-0.0188784732625123,-0.00385553360079602
-0.022074452953118183,-0.01857631933270719,0.004739315615765901
-0.02875455945417409,0.0034068170687093827,0.00037825850194520526
-0.006602034146841469,0.038364485874470236,-0.003268086156839326
-0.04409907844692563,0.02366820084719098,-0.013342257975754918
0.02371026057235791,-0.019089040726243612,0.002193017078758207
0.004662040607420162,0.008179369370716547,-0.020723233340923027
0.02063428572893092,-0.001534469390897689,-0.01411396155237524
-0.04204063987648124,-0.012909463224277834,0.007939087718877632
0.011047007680691525,0.0022464784863185927,0.004882930128058479
0.09101969551315317,-0.006336273321238917,-0.009470906262131009
-0.07307974684397808,0.01972387456571943,0.00896646854017925
0.023997154377355848,-0.014029072098973656,-0.009063127293455524
0.010296949602624325,-0.033571460760545305,0.010330507128916814
-0.021088309731632976,-0.005405859922939191,0.0011791937974963062
-0.009004583664243176,-0.017164913307372208,-0.0038861313231133635
0.09335159068062841,0.009186839676476629,0.009652914468333225
-0.030096299021478763,-0.019400119305643865,0.011020309926174088
0.06592510886013628,-0.04006231559083892,-0.014288782610179757
-0.07463723863369177,0.04595991834641934,-0.0023884333383549956
-0.1164743102625799,0.05515673774830169,-0.005764178088305046
0.09416276001969705,-0.024647741376691325,-0.012786291710599574
-0.004026756632721069,-0.009720517117933754,0.019405516888196528
0.042985785518964925,-0.007053319428516298,-0.03067613891232625
-0.06372107926200009,0.03462077883627254,0.021158056362748583
0.003488641255099265,0.0007054909330033721,-0.024019956810886492
0.0629124075259956,-0.03484924087548619,-0.00537648166484787
-0.022650868695378606,-0.029954504786889893,0.009605734667169265
0.025315258523940096,-0.010283386206395085,0.01401975770207601
0.0005956292178037198,0.03219668524918931,-0.014752721667121653
-0.024124409779313738,0.03373780969064983,-0.02576295220972582
0.006128991317661364,-0.008120788489691454,0.03175252731402164
0.0877253677707194,-0.024930039805011114,0.005182381304814916
-0.015066648784365075,-0.04775696275687423,0.011801249213322342
-0.07115587920634546,0.041796909161447376,0.001072152242248904
0.005102603389936729,0.01204806564197628,0.011624030575715132
-0.021375343631053992,-0.03006294925046027,-0.0050966979088370445
0.029185301454904937,0.013947825720741266,-0.014590174469897656
-0.15062781104600403,0.044446109560680416,0.02112874694877063
0.020044470493314873,-0.014964738948543771,-0.025722781924625307
-0.05160921218777522,0.029818957017474456,0.041141371984274436
0.005672029878709109,0.041955157746608775,0.0179892145263105
0.06079949436636295,-0.019329285924516895,-0.025585492992184905
-0.03923619747904729,-0.012122290147211185,0.009855912835040309
-0.04133639264210109,-0.028656249734380232,0.007034004558224633
0.0006323390254748817,-0.035087684717305175,-0.012005878440615073
0.04263320218347284,0.020480002616548934,-0.014830259736787517
-0.028321797150919627,0.037301800190740045,-0.03361415855100429
0.017894712324672102,-0.02127447120835796,0.039705505939059735
-0.002107304227123032,0.0019837465488405804,-0.028516436887854088
-0.02269479845689773,0.014998189203661519,0.004850789178782639
0.031223860924441998,-0.018414642034447544,0.010038383422462625
-0.008742300646240882,0.015504210380784075,-0.02061259128527774
-0.0028733065155108436,-0.012637200294217048,0.02855950504301709
0.005595466135514688,0.0028560298061012556,-0.018345583341982198
-0.013870760873920314,0.006553363510081601,0.005002379768919986
0.017411804151859805,-0.012583724693735827,0.007967158188419723
-0.01191650132458713,0.014362728813190508,-0.018990210331586918
-0.00024936580647211596,-0.013019357011561643,0.024369348908955066
0.010600535677493096,0.007827649461010985,-0.023298443163694782
-0.015135148128350933,-0.0015100674561473017,0.01911336902666362
-0.006619064554576757,0.023253203321953287,-0.029730546718131096
0.013633325296919487,-0.007322883832717474,0.019376074730856823
-0.014208502093836006,0.004937300755643552,-0.012413925390519864
0.00808116941501402,-0.0003134312494060583,0.004717280588120424
0.0014630575026282977,-0.004451135289544727,0.002052093550164521
-0.009219543160685547,0.007570453650230421,-0.007542585002134068
0.011516392973916986,-0.008396564366953234,0.011194955756515999
-0.008824836742836769,0.007909525795529754,-0.013468532364277828
0.0014354927056914966,-0.0046451713086026365,0.012519799667277159
0.0060942262818664515,0.0022692756736123303,-0.008419479414865986
-0.011329564301109561,0.0002772908348377971,-0.0013213374981056718
0.021378550822580514,0.01560587976470062,-0.008726579475667686
0.0049778197782369095,-0.016824705136146815,0.013739052271361749
-0.01143618937222121,0.0053081826718207464,0.004168048934374829
0.03562897541665208,-0.0017506738786911072,-0.012946624781107658
-0.04345136321092695,0.007254997881190344,0.008780299994896287
-0.012626755682263409,0.0019290866797632283,-0.00579416360525261
0.00928703000324358,0.004015406641184412,-0.0009673985620821026
0.007640347254233941,-0.006093379747074247,-0.004530824747087268
0.021068783425869517,0.00016070241055673833,-0.020172188161059895
-0.03632079899411471,0.00758173563869213,0.020439281065326914
0.009610969611724687,-0.013131859902785174,0.010831590317199642
0.02136473173638544,0.00502789518735372,-0.00817916986038653
-0.02975192545699469,0.0019015662848258857,0.00906029873231126
0.0330633063818802,-0.01322456443775654,-0.01198491536332246
-0.02523510945981914,0.021631964282768593,0.005573094668984939
0.03483923651451985,-0.03626969448657521,0.006419307677287649
0.007913602822732421,0.05466916869524344,-0.023272967488679918
0.031703302245973536,-0.024953593382917538,-0.008501457557497743
-0.020801273850608912,0.027756245319235293,-0.006127116935263899
0.005428145112222789,-0.01314598508180957,0.00864073020282985
0.00823960174954583,-0.0029659127295818197,-0.006856012018931667
-0.016071009110708967,0.012583183164919175,0.0016723769275733614
0.017359234777109656,-0.016478913724087718,0.0038669796020618977
-0.010536432859876266,0.012729442254572912,-0.0070414910711027465
-0.0003927670565456974,-0.004721886873788694,0.006784641338742016
0.007747987688627352,-0.00038882078518153785,-0.00338470146865399
-0.012383237307511277,0.009099960308978174,0.00026574640290136274
0.016884935760635503,-0.01791489974931623,0.0034480804320820672
-0.010184524755479242,0.012107428732646176,-0.011931560884282502
-0.009174421232205016,-0.001999352823803835,0.013327273911368545
0.01903120073810273,-0.0021162475380931468,-0.00768778646066323
-0.014797125922762045,0.0044768316257960015,0.0035876665554214994
0.0019684299349050577,-0.009006133192363631,0.0026216032526442533
-0.03437466897635883,0.07550879643166614,-0.03738163501704259
0.004772625781499179,-0.035983877550609625,-0.0068461167939724964
-0.005545432335716464,0.034676580072013394,-0.0035937223947874663
0.014566522427534897,-0.02328948368353955,0.007460460484710911
-0.01824877218910754,0.007181939636174416,-0.00313530369290983
0.017071135463159852,0.0006126902811961568,-0.006454695395856689
-0.005524627113209295,-0.009555007167946404,0.007709461380043228
-0.007796370081552352,0.016149385452911155,-0.005146599751540712
0.01730580507187038,-0.015586011775698927,-0.0026655377471915143
-0.01922934091644803,0.004024770369190595,0.011093631484857775
0.010622954834664277,0.013645729580979083,-0.013865029889031577
-0.001150293338996547,-0.018854717566731675,0.01278444324935248
-0.007334639302197408,0.013136480217265753,-0.006656546672703397
0.01092445407544947,-0.023966190702053324,-0.028961834831550896
-0.008582528854411478,0.006213490953048967,0.010870352537391713
0.00253971449369215,0.0003535523252659301,0.004390507038601203
-0.010598537972017479,0.00041901219653509274,-0.013293868959491561
0.01825430412857392,-0.003942614375422288,0.01674885346660451
-0.019775719441938587,0.0037536632973853394,-0.011251511634401615
0.01357866960108043,-0.0010328871134223433,0.0006342017125856704
0.0001232287402360096,-0.0030786634373907718,0.009718503992702226
-0.015262836575447351,0.006080089679220489,-0.014873387452249264
0.02476059887130806,-0.006904594427494056,0.012382645558069037
-0.0234120685062552,0.004149288280277819,-0.0034999185106271164
0.009909967141865931,0.001193662999432179,-0.008278389257309761
0.010869838999229754,-0.006657900422851384,0.016839505169540032
-0.03010356320780976,0.009714308653545497,-0.017835976808537313
0.036686263099260485,-0.005701174428735069,0.010032760436149816
-0.03123458004837449,0.004316688771098779,0.004400150003739292
0.01126568967395027,-0.0006383174120472829,-0.021032836798264218
0.0004688322449222168,-0.019397584751614967,0.00021878144955614354
-0.04706290127867446,0.0014100639198741452,0.014495029016821676
0.04025471218086891,0.003823525247512956,-0.020537501238038665
0.0327196582925317,-0.027363778137921964,0.013591986060673803
0.009262007947799494,0.024245498600488816,0.01676495568054895
0.03426399020940886,0.009611078336645637,-0.03200822618898557
-0.006796666887003974,0.011784343104283791,-0.024877515517338723
-0.04393317120486449,0.020006094056049226,-0.0018659338711663077
0.00778613835690296,-0.023901376866327737,0.007008949150498045
-0.03126305186879992,-0.01081057181397449,0.013003254390582438
-0.003043837353434717,-0.006551138307571671,0.009015729795306123
-0.00075710663981466,0.00820461160929854,0.01248200735478955
-0.03267313008933031,0.014535448997815831,-0.0019940155209325463
0.022711493037024383,-0.016413717397646743,-0.0036192169486257116
0.07096877281523642,-0.013297385910162243,0.008391719185696462
0.006243752966854543,0.013523934073787387,0.009494397457908671
0.00928137633364633,0.0179641327575928,-0.03727038564896268
-0.046438635225223554,0.0033845637597749723,-0.009675435862922774
-0.03850703540777303,-0.001188056209638827,0.00810781290216278
0.005127831232132184,-0.02000356506735155,-0.00028580769375350767
-0.02826114930460788,-0.018523443819089234,0.015579366949068182
-0.006499479177085411,0.014079765288198343,0.013162271052802984
0.027760113821416584,0.01290136884406016,-0.007457066826446414
0.022817420877752233,-0.01625024899855167,0.0030624771998158393
0.010965517843093422,-0.010570248990326395,0.012921788163324417
0.01180312334048148,0.004954998814205365,-0.0003673118216270116
-0.016463588571788954,0.005933603999394053,0.006602126665400214
-0.026546714155038127,0.01900663587292827,0.013939694207966612
-0.026475517506436917,-0.008134704076173473,0.004569694657119117
-0.03382125303963915,0.013623355424293694,0.008200925673587066
0.006604990099667227,0.05060347996028021,0.028965342475169374
0.17601201992772442,-0.03648598414039506,-0.046048214605218185
-0.06745768082189027,0.01451470464312048,-0.0013666725693585527
0.0006600651409454268,-0.03025849484768798,0.025353738371775233
0.02071861878681072,-0.030017068719675494,0.002809352647564392
-0.03407700557922086,0.015083896236179284,0.009431148325894366
0.018398751204935955,-0.0011369053185654905,-0.017081748093173872
0.012099023435533684,-0.015621437997591964,0.0067793198020706935
-0.05616238333950789,0.01438643567964415,0.007401320826998862
-0.002089726241877022,0.004425828577309842,-0.024063527813190252
-0.01356172609799724,0.01332534126355352,0.02704991512872562
0.041986352115860326,-0.016365158144146436,0.004863856511178341
0.03262621401008655,-0.018289944541766932,0.008975519212135661
0.023814039406977832,-0.0035753000842028396,-0.003989706448707699
-0.013917771495583396,0.010026834466956642,-0.004342001529365855
0.01331648889943799,0.01018456862706802,-0.00746880111174355
-0.04823508051724215,0.0009930921106013862,-0.01277624127323284
-0.042083206588836755,0.0011119715062137322,0.022079777848939726
0.017002159470020584,0.02432617854953707,-0.0005882803418989641
0.13068269178162573,-0.005991829309588307,-0.018103985842980206
0.004449658521343269,0.009783261233204856,-0.014695983024651842
-0.031858506227242164,0.00973500336120685,0.008740822117790635
-0.00594154654987158,-0.03217141155245845,0.03653991572216732
0.01948336305566869,0.014672201549854672,-0.01677433078492701
0.04963038341025312,0.007257437295532632,-0.016225755274016238
-0.01013149235409295,0.019521041372253772,0.02306714186163305
0.0008498826983731819,0.02250333219434405,0.00871201936812609
0.042182885768492835,-0.03326367881886931,0.0010588878746629537
-0.04760972468098461,0.016724563386864663,0.01087417292617389
0.04694174309598237,0.009074433638070223,0.006258058879540543
0.014888500020917975,-0.0040626461488764455,-0.001665455768813068
-0.036449922798871076,0.01888227894348812,-0.023989246994327917
-0.07565552738174877,0.010181452534632207,0.004287521148649765
0.1784030003836829,-0.06263014718272379,0.010672744828162654
-0.05020449060859791,0.02763245507197929,-0.013551212234524707
-0.03244103363454983,0.008719414302841899,-0.0013844237882947863
0.065221184276951,-0.009308425691012192,0.001732026783931133
-0.054473409286561414,0.015416994459182995,-0.004223868589534593
0.03986991271578397,0.0018492554875585848,0.0001294508214318632
-0.1551259495966691,0.009450564360478343,0.0013662911443977654
-0.02043087292209888,0.019955805013254366,0.0050974709783227455
0.01743547491224317,0.01572883264057275,0.014692888287478348
0.02698671453030174,-0.02371701849713246,0.009394940236317515
0.002978412399408884,-0.012908283398250772,-0.012338912974451359
-0.04982584935161105,0.021775559690123257,0.004482931008794801
0.0017678077314692286,-0.0021886451160852407,0.0137629887915706
0.027151363740403445,0.014635557249226116,-0.0019500948269696103
0.023913734661801404,0.0013121036536357707,0.00643117182598104
0.03935236792997063,-0.00597196741058025,-0.030661248798499817
0.006556353814980386,0.011233921995209135,0.0033487230033501366
-0.05468064589582055,-0.004799784516877691,-0.010474303716194386
0.03171347559746429,0.006471958368266366,0.003425282503301234
-0.0013768146359419199,-0.005447031967740712,0.012668009992112483
0.0007100340226189575,0.0008295177739765637,-0.012416092468839318
-0.014083717478315449,0.008755208622946202,-0.0018634636730355887
-0.0035002275689919485,-0.006430975209689984,0.006818017063022829
0.01248524624802709,0.0020059304131297743,-0.005691859672117081
-0.01921430041761173,-0.0011216943599391144,0.0037095930372947335
0.018783446355288773,-0.0008424370217005639,0.0021340412059465616
-0.019364419525931417,0.002848373546515225,-0.006432745394635537
0.009309335420384177,-0.0024831497813417487,0.00778817755664521
0.010568215680415301,-0.0005138327707627849,-0.0025324752720408627
-0.022587647902901693,0.0016750658707692413,-0.0060061287521781985
0.029806868099506043,-0.005756742175132624,0.011605568394660457
0.006495734745432665,-0.007198208552220786,-0.014940810819016909
0.006891481408766509,0.0019316373069949051,0.010009338225927786
-0.008839469649715801,-0.003025768846003992,-0.006832866201211561
0.008274165976055913,0.00022327234710750127,0.003508137876735722
-0.0039491320410457295,0.0015042646373541139,-0.000817264531367548
0.0009276317655260805,-0.00482734011513685,-0.002300389057159065
0.0026440325037231593,0.004887940535259321,0.0037645998397697693
-0.006234455535192305,-0.00019081855198727714,-0.004682287934951514
0.006141922135749893,-0.0027136766338209427,0.008059061003738176
-0.004093019352026746,0.0062958052576747876,-0.012467394539140133
0.0005394977170223666,-0.011531910456032657,0.01565948629863585
0.0032222573925390924,0.016535034465098478,-0.025742891900972693
-0.008351809650093096,0.007297390992035182,-0.013951630183051978
-0.0007492575820885279,-0.0008588389199292653,-0.00808774015174653
-0.009839747686122016,-0.0022092903838096907,0.01318608266341343
0.012435555291174056,0.004956818246556943,-0.017058832984507825
-0.013976900962022242,-0.0038011088303917615,0.01535698891127444
0.019885613524995127,0.0027374403832125718,-0.006787053767096952
-0.003605904480693453,-0.0010022299077392868,0.0005512948677356374
-0.023175700269614977,0.002131595376147688,0.007024156192051718
0.03354391238254302,-0.002626848441158961,-0.011577814334075509
-0.038076796751056324,-0.0005002264670995243,0.007248812427123836
0.05516105026522379,0.003917132517156035,0.004610023715986453
-0.05073628063137069,-0.0032057473108820355,-0.023254877432816116
0.029375711522403373,-0.001679968298253988,0.02429984665116427
0.01174382035897491,0.018935655677153804,-0.019914336327863123
0.002896834027208669,-0.010683037666585031,0.0069115771739817755
-0.008617854393295012,0.009019157632726274,-0.00508610482791922
0.011447140106992602,-0.000510676765566032,0.0009426015674404467
-0.010358667524090412,-0.006790050758555385,0.0039023414750299938
0.004427502640468529,0.009929014862410188,-0.007342026872244023
0.0018761306656484868,-0.00918148508367982,0.008841448126503566
-0.007438204213387245,0.004213114224353179,-0.006387598472889081
0.011103078323117126,-0.0006722216322967949,0.0010070739801950211
-0.009843055561455077,-0.005805889214350534,0.005461027002475247
0.005248053153674147,0.006706182886886021,-0.010659127701451068
0.0017506831194257387,-0.0032140700011572066,0.011035419176205138
-0.01063549612220378,0.0018180690534582817,-0.005921217502296915
0.017831997187178556,0.0023514865645617626,-0.00497676161990898
-0.020475172689082756,-0.014538952268157424,0.023362345505989503
0.020398638988920272,0.012437024427291339,0.013461387358617977
-0.01886286765778629,-0.009783874944936405,-0.003023556812205612
0.008377648119465399,0.0009215281586174948,-0.004588621636390576
-0.0020042724801687087,0.0032405131106277157,-0.0007128498023125811
-0.0037471253600810397,-0.008965656546378755,0.008807537159715882
0.008638609057529207,0.01073982310148488,-0.005781849621387267
-0.006960004433435225,-0.005143230960458033,0.003259406544384999
0.0012242823885088479,-0.0019515463764910807,0.0023685081311231215
0.005446714439358485,0.005957143738898263,-0.014881095859566807
-0.010228487860019259,-0.006292437701919231,0.01517649267084921
0.008887449333056564,0.0060147889645023635,-0.0069189856194273765
-0.0031653170899961164,-0.0019896492981643743,-0.0022566102176941488
0.01814620726474233,-0.0007107008270140444,-0.024455784557717623
0.009061642771066813,0.0010113708577848281,0.007052301653440148
-0.021197431335474543,0.0066092730553865935,0.006265692771243116
0.016618883210699636,-0.003461761650484701,-0.009058364605472899
-0.010212210479456094,0.0053617243834727865,0.005638008868674129
-0.0007837809253129777,-0.003390187231505454,0.0004014694242262193
0.008805654389356201,-0.0003802978934877147,-0.004928791178553838
-0.01143971538453992,0.003045051680038855,0.005737304365764418
0.005880339285924334,-0.00570431439941239,-0.0019861923575777624
0.005737403508143058,0.006189871918245125,-0.004105730343610608
-0.01494205407689424,-0.0035532320085945456,0.008964787423497421
0.01953760329688016,-0.005279244047389063,-0.008646094625724262
-0.012602615310234228,0.013606480980746058,0.0020603207603846134
-0.008804982193886061,-0.027094704919916595,0.01418688725805732
0.007895628983517108,0.008661315827078053,0.009044540952830471
-0.008402545798491281,0.007991670074300352,0.01681749431283876
-0.048619563764572125,0.032931605754635856,0.0020739706903119617
0.061526640559124435,-0.019752513688535738,-0.006458174796728507
0.005756225686062896,-0.02515805061544165,-0.012649276921294063
-0.03181148087906571,0.020609767697664746,-0.003995793751174799
-0.002089761733287571,0.023060690672319403,0.018173520937393328
-0.016139972806696084,-0.00843658309537729,-0.0034144719838073885
0.051450690644198244,-0.031808144544060724,0.002278865082417904
0.007722634200898238,-0.01101526082673054,-0.01358314032099852
-0.04988844982609429,0.01747964693786884,-0.01241195927753618
-5.748279925447703e-05,0.0342126725708351,0.025366858769956303
-0.051495760522454366,0.009410282605702333,-0.005848926851004934
0.044535767908264245,-0.031023239502272315,-0.007336406581135922
0.0842878765557614,-0.02356530800687106,0.010544226289419978
-0.05711016345902567,0.0067673918015510705,-0.01853385448744745
0.0798704755934351,-0.015941111474853165,-0.025888716370666937
0.002010083801810984,-0.022175425462201186,-0.005301395208681268
-0.03768919494289372,0.012068131259934575,0.001452059301654962
-0.019773463896616827,0.025122132295960248,0.0166949132525329
0.007154252008381196,-0.0067826051333811,-0.005549375880962172
0.0696509288025716,-0.02938926396773622,-0.005870335721805084
-0.05143443548131765,0.01941246417700681,-0.003629888135968356
-0.04005314889684805,0.00983313715676088,0.0055534244584776234
0.05025193675784706,-0.01641883904513429,0.008694626277083136
0.012639952266433826,-0.003035275408411743,-0.01085963790502054
0.03872455907992304,-0.005061797090722915,-0.005448192323984793
-0.07938781634725661,0.02458275712369801,0.0041723294039536386
-0.018851879533826162,0.017897016610792033,0.007562992010310018
0.0765352896215058,-0.03213159901689795,0.006128778172228138
-0.02426484674439824,-0.006247666194923285,-0.023514684514349307
-0.00946609002935317,-0.010056549071284476,0.0006381831791868022
-0.014907687646962148,-0.014754751788585567,0.012113442707030556
-0.0035204668895007308,-0.00750757559022862,0.012370157706494892
-0.027753453973928387,-0.0031919580355485224,-0.02063026513968564
-0.010380883748532745,0.0023584332865900053,-0.0016109750807080294
-0.04714063109427313,-0.037145576399045595,-0.027131828441218708
-0.038593789460671615,-0.045732177163842314,0.002565453369033583
0.013902297854439302,-0.015018373220897996,-0.039184010175101786
-0.012040286948700844,0.06153887772804073,0.04439920939732339
0.0768827748885145,0.039680457388747925,0.049395643003252006
-0.01769137062575185,0.004785917581841968,-0.052172164489756784
-0.029227367775119382,-0.03852756698444797,-0.038488287407277263
0.03263607601462935,-0.04133609583987097,-0.021195642892961886
-0.08952746523723355,0.026903084240402587,0.005649680051731144
0.08605785356261916,0.02071606813058112,0.04736591825028456
0.007845372633943972,0.041099704089704106,0.032662148032496625
-0.0015800440926107186,0.020955899348734798,0.00844161036325784
0.015107038279667705,-0.007768001663508336,-0.0016894187457379226
0.032742383326530206,0.0006723212256384793,-0.013473965515043505
-0.06853665615630362,-0.004209031212379742,-0.003098417589208171
0.01219620522197311,-0.009282366024425054,0.0013059871831649335
-0.08758882305954749,0.032545102643410394,-0.023219247320975037
0.005458482865852156,0.005175884907845994,0.008024607377909308
0.06041950758079469,-0.006319255118198371,0.007614305906828658
-0.10975403054163402,-0.008638187830265119,-0.013189084456422223
0.12944188773910995,-0.03786786945829406,0.03904274072123704
0.013066093726679667,-0.0011282858454398133,0.00929977202136029
-0.020679875687741996,-0.00927139808065218,-0.00711899900370283
0.03288483900622658,0.016348566905301284,0.025769841669476847
0.02786808703326459,0.03415089032883178,0.03673371739861577
-0.027159020530710024,0.019614468336460446,0.008117912572703157
0.10848200949183762,-0.024984563389969468,0.043162359489014646
-0.06971541054816412,0.0186577738053847,-0.00259910738224198
0.027551079517527263,-0.014815245452367384,-0.04415834771218016
-0.03155519912219061,-0.01783391120243086,-0.02097730223136025
-0.05742511306776585,0.031580747611710355,-0.014848282289518618
0.0012560993707744755,-0.02089402623766743,-0.011094122757568596
-0.05702999146652641,-0.0006757446864756448,-0.016479279179071667
0.015335287858995144,0.007395324434912627,-0.004507854325725991
0.03120355755599869,0.024101906915359062,0.02008080583711309
0.01804147294703964,-0.014229153594432446,0.00950892434498693
0.019496737296436528,-0.04360391788242163,-0.0025486923591590644
-0.004667444320744316,0.035352217321037493,0.018765462306754226
0.06215547061793211,0.016361668766286634,-0.0009841497985790754
-0.04685490444026239,0.032512354672097864,-0.012075679946896
0.07088535729724585,-0.0006030947118348261,0.007793102618439627
0.006533238175221334,-0.02261797301920836,0.01198144562837215
-0.0575316026069297,0.02276344884745271,-0.017567009540760414
0.043978232654384365,-0.010013020473611266,0.00917976418776981
-0.0788547660748577,0.00931205528318416,-0.0014049236740482818
0.11098097820864583,0.01507280733747549,0.008278586842525828
-0.019651576327002828,-0.061237867069021804,0.00195856232150712
0.021873702884630957,0.013560841497535081,-0.014225555709307544
0.0031418079933814625,0.002261260612535799,0.02386433604925735
-0.02009732882135144,-0.0004613112457135876,-0.02216530994208907
0.020034761173514215,0.006306253746216216,0.015591465024685915
-0.002766169860585613,-0.013921620127788633,-0.009239053946412903
-0.006352333450633893,0.004640415585900116,-0.004410489244875044
0.00031525741115434787,0.0019782413976284297,0.006399562165087644
-0.011502125209038636,-0.004350614911144141,-0.008795156068057645
0.00596330152296016,0.01083895421038952,0.007962633894313724
0.0022127508700811307,-0.006467279886034068,-0.005416375660223819
0.00048092660398498,-0.0015082924569353525,0.0032965839777769437
0.000802604783370365,0.0049924472944020476,0.007678292259587156
-0.00759428478131593,-0.006675332622989317,-0.02202131149195699
0.00981702609630254,0.005827195851518745,0.030644779085949383
-0.012218231708833658,0.013077468248302995,-0.016434234663701305
0.014389679150966945,-0.006073062512492162,-0.0019599307436091833
-0.01553208649099524,0.001691659292321057,0.015093026690951486
0.010598192988240277,0.0015325827615360063,-0.019292007481554255
-0.0013476194179667929,-0.004265927995501685,0.015015400598111621
-0.008396430404054167,0.005403044172420868,-0.005178817594583828
0.01074267065907712,-0.0003551456319115043,-0.007887128691129886
-0.010494540919889057,-0.0018727340290574102,0.018383512684692946
0.004068559133837232,0.008293576402085612,-0.018156752645431665
0.005088142581668948,-0.00798270932994832,0.00440979556072668
-0.008652037533621456,-0.0017443152065844177,0.014422891704936176
0.010040643557798386,0.00506398565119261,-0.031155416814758953
-0.0051206312999111615,-0.010198000120993792,0.04344485212795904
-0.006239219169357286,-0.0031256543205430143,0.003396104065057329
0.01065569923601066,0.002232994827949791,-0.017855092812261497
-0.005934620683487778,0.0010107919635187483,0.024860032376247752
-0.019986915081130804,-0.00039332648877855544,-0.01835320294934816
0.01707508814111896,0.003959803432591779,0.00968416842827274
0.0022482815296622494,-0.0066539241909657175,-0.0016782677642453458
-0.00868305255169914,0.0010799920434173553,-0.006696252888071805
0.006914724878734837,0.000607029965982585,0.011990662040170328
0.004505893944720568,-0.007430634077128333,-0.008685734012953025
-0.01941034649601578,0.011153044923496863,0.002708173406605393
0.04172740824451283,-0.01259651226474649,0.004131590110053216
-0.13543414874761,0.011038327040361114,-0.028210593897641613
-0.0007692916237470458,0.007482556710449957,0.011977523832167268
0.015100820611520481,-0.0018735944432932952,-0.01263885977209038
-0.015386216018619007,-0.0022433105812788966,0.014552744855675783
-8.15391311679097e-05,0.0070577876146703305,-0.011333679686888195
0.0085386022201164,-0.004239938305615737,0.003443237915077545
-0.01190445550717436,0.0030180926372124785,0.00029549441533631123
0.016405004468908232,-0.004300354174797737,-0.0019938004828734617
-0.004923114751454152,-0.0009524023151563988,0.0035868078018101756
-0.011959418512469667,0.0008751275437244859,-6.75558621151918e-05
0.026978570653392507,-0.0037632073351624227,-0.006409057075574529
-0.03361344512860238,0.005052355170387745,0.012575379625158822
0.05422215034657836,0.006882938114317353,0.002199434459365369
-0.026654023412031908,0.0029430277493486313,0.002339330084827955
0.008195430960802483,-0.0010224628811333273,-0.0026848348596677637
0.0017245632338080854,0.0018318271839664405,-0.008371058554317452
-0.00945203535933348,-0.008237879386345463,0.018248438093847096
0.011629896898897912,0.007991219867529317,-0.015155938728421484
-0.006343490229308147,-0.007929934710619422,0.010725865805881293
-0.005736034475868323,0.001625997452932397,-0.00026204048889806077
0.013162569605453665,0.001169476739401259,-0.014227858641465606
-0.0016835007664776093,-0.018772120090156157,0.009570271767931822
-0.013376300432355749,0.013080552177666543,-0.019737846436160146
0.0021329743863401675,0.014947339775063198,-0.02976447981666177
-0.003262870345768586,-0.004311145978188104,0.01427121970052216
0.009502929687372288,0.0018644962165013969,-0.005697823458063379
-0.010585926930212266,-0.002920597405896558,-0.0010468308419970937
0.006642068666174473,0.00536601829504636,0.006559035980516095
-0.0007762849952060236,0.0010843490523928874,-0.01157425842028678
-0.005965890721120203,-0.006962754207489203,0.01326932307525585
0.011718807799080279,0.0028270287637313404,-0.009265815464424901
-0.014438460372684127,-0.0007652334806705401,0.0010499966151904416
0.013245319169243437,-0.00045071150750494813,0.010450615532544621
-0.007644144860547681,0.0018335641003348066,-0.023609725831062536
-0.0006479798005228981,-0.006740159946441439,0.03887051321853645
0.016092438331707773,-0.0028067515186609906,-0.010687354023833208
-0.046847419171702674,0.028029837246448842,0.003501000091283797
-0.007624176409974107,0.009766736347065373,-0.004067391978979178
0.05785921687128121,-0.026779794444878456,-0.00408085130663099
-0.04267596324118864,0.012914446272435766,0.004843691755974745
-0.04144673217200613,0.02330999101387294,0.0039955695598186975
0.04761931528264585,-0.02051295759587583,-0.0029757701782550314
0.050564540876662144,-0.014266957616903556,0.014281943186003383
-0.01226686585456007,0.0018656709210452226,-0.00981021531822321
-0.042017957820609526,0.016700147988109385,-0.007445715286921385
-0.024456310274599685,0.010968963562708805,0.00817404823451241
0.06113454561804611,-0.031305517717929665,-0.0038339321059775062
0.02686822743778722,-0.007927973075892616,0.00622118304018218
-0.0765849176058355,0.029586201921420398,-0.009799130980094212
-0.06028530989471865,-0.009991951800821887,0.008847937835150048
0.08501359071167536,-0.009178406006170127,0.0004665550757674865
-0.08909046368654602,0.02854859553983525,0.010215350543233696
-0.024497384438120252,0.019532615271634288,-0.0028789464715745002
0.08663240295209115,-0.03763275537339058,0.0034483957125188945
-0.009827490547921551,-0.011288433645018334,-0.007732892292200595
-0.020040031492972423,0.041245835164469814,0.0018403401589247078
-0.04243742188485259,0.002950812978011211,-0.005234787611605059
0.058070574104952775,-0.026283431449590014,0.0081390659321928
-0.0018924149597000853,0.01171837506104538,-0.0013946997354220257
-0.0935246124923908,0.010160285651451315,-0.011817067153383922
0.09276172115678158,-0.030189020283557993,0.010798904567351766
0.01691878607650775,-0.01387238315395858,-0.011137829798021213
-0.01343062298180324,0.020509116758272713,0.010774235769888112
-0.0791486358963012,0.0269074763953399,-4.1885160417218324e-05
0.04297104716153077,0.0011819233155666202,0.008589824851983785
0.08396501511721241,-0.01824197990424904,0.029663059554185668
-0.03119162649712424,-0.031210903533855847,-0.005974484538683417
0.034656502237770934,-0.0037633992262533257,0.007918008128592904
-0.054091868969018256,0.024659072897931136,0.001439570218443275
0.011505726246045296,0.015658249315168904,-0.011473403869822783
0.037768767995717434,0.006767048794964753,0.005010498391675965
-0.05382224127177477,-0.003289391826487322,-0.02674441566312709
0.05738305195023709,0.01628186703970236,0.017738598825747798
0.002453877038763279,-0.009956570390340577,0.03083569325751466
0.019075388735286546,-0.032668580060443715,0.0019102480649552164
-0.0159445649924942,-0.012703313682279482,-0.027172439577886048
-0.006394884612450705,-0.016637744877416247,-0.006401989233958584
-0.0437433015146592,-0.022879947579799102,-0.020592037290742972
-0.08041959451844011,-0.019101595447961455,-0.011289310962061257
0.07155459707426894,-0.04050664155924791,0.00889616872590791
-0.04341318816479464,0.001243833262757607,-0.015994654115679872
0.10983436888883694,0.02386254749185172,0.0007713032238087399
-0.01595591869637407,0.0034993357352414867,-0.006719294708058801
-0.08063881050578854,-0.00010507377372040612,-0.007733181547581396
0.04813088677672772,-0.010534356159281949,0.000529860023913805
-0.033342910115456786,-0.009387486303575335,0.00032151641762268555
0.0035773982813772816,0.006261935761513787,0.0076059293861325174
0.028785144649614583,-0.017512387413407767,0.016459626101128826
-0.0261805910579044,0.010315819954744884,0.0025548764678067024
0.058899232155311385,0.01827485035683915,0.003793678066192627
-0.027569994871636028,0.014946672209760608,-0.00877174883640114
-0.010378449192226708,-0.006841216747958359,-0.007052669237820625
0.03603126917592836,0.021615579075218473,0.012581813903284673
-0.019123591183287502,0.04612279476303007,0.0002892530643677643
0.08604358717000345,0.018499097342232144,0.008218420589519451
-0.015367480528904118,0.01554142775033221,-0.008988746179286102
0.06786080566190812,0.023498373119176286,-0.0043425284648811804
0.007888675700097946,-0.010066469542124666,0.007206745581489722
-0.0660503478307029,-0.006414354872101844,-0.01286471781223756
0.011808080975807721,-0.02435285333625425,-0.002276273764423284
-0.06032330528445419,-0.020802532130864554,0.021042248792037057
0.11440369947926733,0.042901705194773404,-0.013440929286183827
0.0312952952918644,0.03370969564957588,-0.008933053767627168
0.05509271982116761,0.044678538818011565,-0.014355083937854141
0.017445014525311817,0.015486954013213598,0.007103803227322141
0.03013470231567279,0.022141228395242053,0.030626369531270698
-0.009592316522951028,5.378010836726548e-05,0.002780316483251487
-0.0287629332424168,-0.0316542258253224,-0.0216791286275606
-0.011760485274377052,-0.04772223579286142,-0.011771914804773532
-0.07093884998955485,-0.02180827443815147,-0.020106252388492042
0.026073272117056533,-0.049419974794301214,-0.007437207972681877
0.008629593921227833,0.047454034388310674,0.002517420397865174
-0.04591498577871374,-0.04637257072088491,0.017078785268842052
0.006148945628029675,-0.007405284744925962,-0.014903853517952611
0.013181082975110753,0.028689836599577825,-0.005426362610879035
-0.002427604486715246,-0.010233242846122408,-0.010297587512760994
0.012252396093263777,0.012324655594698336,0.0016627386838482584
-0.02263925237190769,-0.014757857494968166,0.00535314923163255
0.028307423424565558,0.010104624906995274,-0.00813397793236836
-0.07537304727367009,-0.00025397976873972757,0.026000363782174192
0.012779949897703693,-0.004441719259305672,-0.010753629171305025
0.0706149836591767,0.007973893156615173,-0.01586281365968676
-0.03260225176232929,-0.008347657034742025,0.012080284020033265
0.022337728307801397,0.005375591287229625,-0.024474967079716334
-0.018946917789412796,-0.004421264912414893,0.035599113804793754
-0.023271192299273685,0.04857963013068704,-0.030573692600354682
0.011879369001207968,-0.004169603178444263,0.0017523231135297005
-0.002681227702538053,-0.0012162344418499287,0.008292987834997179
0.0010435885843171125,-0.003839750027949275,-0.011613845691830726
0.004024264893618751,-0.0036672389635071375,0.012373300614471082
-0.005907769126854503,0.005661107520595378,-0.003467916190074178
0.0036328857204270914,-0.0006655476033626275,-0.010236560641849028
-0.001993377909300834,-0.0006403042454293073,0.012979034774231544
0.00015461208732494127,-0.004511399157399487,-0.006463252833199979
0.005542760978062166,0.0013937205059594575,-0.0048445794303605075
-0.011254030913138091,0.003104301217826836,0.03301922010530425
0.007898598158561533,0.0255342592633537,0.02269911976818314
0.009147718566627657,-0.0005108118262012531,-0.035598384442167674
-0.005586457618724079,-0.007545302503577595,0.03439488048396384
-0.002715647995008621,0.009322244738606884,-0.02469796897211997
0.006477346597292236,-0.00327448838535192,0.010129230663940593
-0.006757582419581224,0.0008563361488812889,0.00896578724112094
0.0026980779600927814,0.004255325224624439,-0.021892422585812428
0.002627866463055591,-0.010912132485661988,0.022425711364376183
-0.006814581575367556,0.009468305271656562,-0.015473148888541491
0.008082873902891613,-0.00527652061517634,0.001205742785317287
-0.006717256693060137,-0.0016349712838515298,0.013035210930776055
-0.001390209917140396,0.01218225135174619,-0.023412659926434935
0.021611653481612262,-0.015882866810643208,0.03070300978532701
-0.0173451762061774,0.06366495235392226,-0.005299588551869362
-0.005287555504309596,-0.012833964665533614,-0.007219156427403093
-0.005545453011349407,0.003873345075244201,0.004372515094374223
0.0004413142507365439,-0.0023217478800453945,-0.001213187797962604
0.0029802367080297436,-0.004545876360566911,0.0011803758109462073
-0.0050322961349751165,0.007310884328438473,0.0009097740221727473
0.003104649581049686,-0.005085058486670815,-0.0017178479702932947
0.0012356150345405271,0.0033053711270736343,-0.0008521109547304653
-0.0038487248443042164,-0.0010283627529360346,0.0035040895750119185
0.005206856534960457,-0.00203634258527444,-0.0037997056841367577
-0.0028219153123605544,0.005939037662115543,0.0011781003830501338
0.00034176561463771616,-0.006329900095134459,0.0019455381077146312
0.004033983683653511,0.006335873318364276,-0.006245469436812272
-0.0073641991825424465,-0.0035100590962764975,0.009561126437816803
-0.001473772394246843,0.01856423044156294,0.012983899876210448
-0.018919443105678814,0.009016107181996622,0.0005573693848600187
0.012857850426962105,0.004232577486969549,-0.005771884355148136
-0.005647216323250279,-0.013627529824074058,0.00501717903593237
0.0002780897312653738,0.011031131017092868,-0.0013019883149971688
0.006835392263570416,-0.0026268712842495,0.0007448811383988507
-0.010870769665421316,-0.004184391252950077,0.005681400036208873
0.010641349835065227,0.006799243199930933,-0.009583119284045635
-0.008657441851653321,-0.007650242232656706,0.0045892490731192165
0.0025053106698237114,0.008149219299598161,0.0020876859882939637
0.0033183712059349753,-0.010602134811424767,-0.015356976612144222
0.020007107789892464,-0.014645329485810505,-0.016911394048450944
-0.01914849226939612,0.00992708638899102,0.007868196273866234
0.01331501959813752,-0.005571444148627272,0.0005412699410129214
-0.006009581110111127,9.239188793341326e-05,-0.005460540010979472
-0.0015690020493603191,0.004910829182946036,0.006860310146227334
0.008272495780610995,-0.007002999205100973,-0.0056193395786550936
-0.01009844215822708,0.007841934000003863,0.0024410729670898395
0.007739478952705229,-0.003240611833495286,0.00041872502547180625
-0.0010828843372916092,-0.0026482903840569626,-0.00163346236669394
-0.007202235912890626,0.005005592298973684,0.002189302547379638
0.010000010730426044,-0.008107268763478583,-0.0013996450649748932
-0.00686391262792291,0.009375510931555853,-0.0006782146938577442
-0.0017774274215213034,-0.005083016563941217,0.001028487976561375
0.01840095151979429,-0.0009557869881907376,-0.006036270725119934
-0.06579384467858204,0.023206237796932587,-0.015933340239652198
0.025895326636310327,0.0052528965847455375,0.005771180135942264
-0.01905175681956905,-0.005219092930706385,-0.004629154230188476
-0.036002806477969496,0.0012623607313106758,-0.018596132296099722
0.01990224282440333,0.005984932312320933,-0.005467541911973427
-0.03959239824511616,0.01251461679401393,0.016174385619719102
-0.02726458542390468,0.007827079158120635,0.01034124365192337
-0.0008987059071291388,0.004505513448219677,-0.0005366221282660753
-0.037771558512465074,-0.011952162719307999,-0.0013947467024411145
-0.01132613601604088,-0.012321103212261271,-0.0029427418508088544
0.004083962930081755,0.0041931515317719485,0.014712412717153492
0.018041029745775407,-0.027105025022827762,0.0060792215144985715
0.08188539261270134,-0.02320455222428533,0.004393841821437809
0.00632123427556526,0.013759426991224795,0.007351355764579518
0.012754803260355363,0.022176981373026497,-0.007666411754771614
0.06207819729672735,-0.0031384154286102223,-0.015904887653551622
-0.0827745808839547,0.01678897830553119,-0.006723868368132178
-0.0030922857817327837,-0.0030418732235716972,0.003737417034639288
-0.014946641628346911,-0.011711941497546171,0.008774327697857413
0.009467087144677148,-0.008915870042801886,0.023305524800026484
0.06620405351259875,-0.026969257181849015,1.3548542457615664e-05
0.027062054640601498,-0.005241087076128468,0.010289515641772717
0.01733462939237196,0.018513810315776192,-0.005084807263732324
-0.011325953228875715,0.012066848899993168,-0.023014377154346084
-0.05984781478075171,0.011111121401336868,-0.006888461380531511
-0.0075455505265788,0.01616729306554371,-0.001156666962765623
-0.006881015006015491,0.005819202424772012,0.0003259989923256063
-0.03595228601724898,-0.011692656467623326,-0.007870821837865007
0.029813319094023048,-0.01943050341837643,0.0103629805031768
-0.04583655676801744,-0.004782767832757736,0.022898095416414795
-0.01910423505019863,0.005444827789351542,0.011409427470909997
0.029040023298770673,0.003742353523412019,-0.003633704068182645
-0.02411595152168851,0.009500295727475638,0.002713050783851409
-0.014229132495452414,-0.0020551189412733855,-0.0012437145551762105
0.0795972665475031,0.0018147460112371734,0.010992623399130957
-0.039760798822800786,-0.006287082047433487,-0.004132728475487613
0.051268073398075195,0.0010823622442277005,-0.013757019032940968
-0.0909485612565929,0.019463916027481754,0.002679284233506933
0.10538308490445393,-0.00038023700713175554,-0.053783320504053836
-0.014490327461009065,0.007141462070201016,-0.02130576600885757
0.05064755037689154,-0.012833751034554319,0.014546079912679772
-0.03222460097224551,0.029714354292621387,0.0030729517341118607
0.03550792714217787,0.016686751831242096,0.006962454828975774
0.006504178716837086,0.02105589625348729,0.021668113636317092
-0.02005527202940724,0.03041393109007904,0.005356801199268901
0.027244284757341912,0.0160410606667478,0.008030454871375367
0.0023535086095255384,-0.002494901265282593,0.0006274656541694814
-0.04153398401174373,0.004462289800015792,-0.012376464463991751
-0.011790622358906485,0.04462412334737967,-0.023424970862275123
-0.0007135082844703482,0.025830088325840488,-0.012292440561165845
0.016192310510777675,0.016396910217132386,0.0036507749695321723
-0.009043692580943636,0.009749009817456349,-0.01157718892219681
0.040490712204059004,-0.006827272400326469,0.004944538609588076
-0.007330795619146388,0.00011982825799552316,0.010500256249218576
-0.022031211607078292,-0.009967527607724461,-0.013955162075344328
-0.04580289769484698,-0.05599934716389468,0.014213133768440345
0.06758921218550216,-0.010421385513707993,0.003848478049186789
-0.0294507827332263,-0.0036662996718460333,0.017554160774939348
-0.05389155737203258,-0.003803993144350752,0.01089222262553482
0.048534979819440355,-0.020335744061909147,0.007546128034024015
-0.05331830087284016,-0.0037552882663150055,0.01740367943859777
0.03200230266325811,-0.014538770332141078,-0.006638875491013586
0.0021799300953463134,-0.04242935829672375,-0.008227441485867501
0.03353861970870361,-0.03625110793803252,-0.033508708296178205
-0.029043899141847823,-0.019067066316984106,0.011968018035124255
0.019903525682637604,-0.0036137596909845866,-0.0009342901146900603
-0.07958454010214282,-0.04212820179284108,0.008922587050309332
0.079792412356385,0.008856023411529796,-0.008598378039687516
-0.033075631227619987,0.0006360834443545071,0.003825819872209455
-0.02078118016066225,0.0014940960284273788,0.01842030630611685
0.029043814000552372,0.04475116392915262,-0.0027788199318394104
0.09051331924343717,-0.011115949119608452,-0.013423504685405277
0.07278741267081965,-0.016771343504652106,0.014065663245907203
-0.026727272940693665,-0.007852301949165296,0.01997956524812463
-0.008138669027506162,-0.029979301855051703,0.005922088954971313
0.04436619374794562,-0.023061226347000797,-0.02259548033809324
-0.04136515614587357,-0.03004732509209942,-0.028729062727813677
0.03984373337125352,-0.015632864429133593,-0.008367382788565247
-0.0366339100508411,-0.008404135654104888,-0.007910922356998914
0.043593190685760244,-0.025616964402553854,0.01086804554352365
0.051824176400749995,-0.04710963626188137,0.03197768444017442
-0.013101919285336817,0.019137885943657035,-0.022716275695240422
0.0326659001390346,-0.011607972077775974,0.011823997516645642
-0.013961423202391746,0.003159641283444636,0.006189758725818896
-0.039855977230317946,-0.007873098267117006,-0.012984625865885897
0.022692216791225857,-0.003912859465082379,0.020164680384678054
-0.00987362870277651,0.003707920239585694,-0.013845228764286005
0.002043236376573425,-0.005105803841647312,-0.005912158391522582
0.005143736920290878,0.010945637318005153,0.015054782820365573
-0.008533751541184634,-0.0010641473458308144,-0.01934640746685066
0.009457542071566738,-0.0058201570569793686,0.015610918248480564
-0.006995870803481848,0.006248633777779001,-0.0022779043626569634
0.002807951595846599,-0.002968913129208114,-0.015275055899738946
-0.0006636429038687373,-0.0016263279974747284,0.033324289957045394
0.012175620910256493,-0.022831170202296518,0.02548231318426027
-0.0049694406922741775,-0.0014112170906334302,-0.000563495812833263
0.0015169027191286651,0.010278491671997132,-0.006749210544652787
0.0009827867999191867,-0.012654354208915582,0.007253035788973408
0.0003737098586378974,0.006629504414643437,-0.005112239096491502
-0.0011783513361885568,0.00023041272402702273,0.002641648058210519
0.0022033174364920706,-0.005818524393859324,-0.0026007481835169668
-0.0030591255950292223,0.008696297306150659,0.00444614418443273
0.002122023899909304,-0.006569691635762086,-0.006439436972068545
-0.0005998688994522407,0.0008753135804869274,0.006038105564275752
-0.005856238295968068,0.0070080965601002545,0.0009907886386140586
-0.010354297157493515,0.05159993827861204,-0.01615555219937663
0.005336328060650595,-0.013905606574901917,-0.013809740354607577
-0.0040881450336844125,0.0005401047424192611,0.02416635023268289
-0.0038012741061648958,0.007926473631705178,-0.02031696965353455
0.007241678437503167,-0.013241528255487401,0.01262409637770942
-0.005385395185169288,0.00993578986005342,-0.004339521955634097
0.003777272042305529,-0.0004436277895255177,-0.007362369886269985
0.0023842045341771027,-0.012755295199153992,0.0187245447867243
-0.012447981501494523,0.017611108160342066,-0.01937949141887628
0.01723546025708393,-0.011145551380096003,0.009677094699848204
-0.011321258407415359,0.0032368494039025624,0.00038498433803895
-0.005464427109136455,0.005938136253353438,-0.011930152651562168
0.0392455571030388,-0.013235860706653413,0.03423614409491881
-0.03170429130260308,0.06064816498653204,-0.0197803597648048
-0.02925034036347876,0.012271004871929034,-0.03803868807620725
0.021278308109516166,-0.006320431830545033,0.02808527233635125
-0.00634879945244371,0.0016633037299578846,-0.017086753051581936
-0.008376610235485027,-0.0007024855109194658,0.003759329832046218
0.016131116984389616,0.00323079113314859,0.010025516940658707
-0.016966278017720708,-0.0022841924071613923,-0.018435644827626257
0.011217556833604325,-0.002214732068331007,0.019049890157852252
0.0009951558461141485,0.004543681798339154,-0.012353404927103899
-0.012922663268749116,-0.008645705157550001,0.00025029114026119896
0.018934159366355646,0.010547829928739445,0.012833281266451444
-0.019481826148416443,-0.00816862907328797,-0.022980151656404144
0.012700756701174676,0.002280859242004274,0.02981936333272744
0.013741559178357413,-0.01672146484189714,-0.02298365582292955
-0.012937565504019404,0.007223143902164393,0.005458322394537805
0.007397123744726852,-0.0014296843752827435,0.003013182336636321
0.00043833981297249417,0.0013808254637080381,-0.00335447752484168
-0.005307141148739291,0.0040214058981243705,0.0025078506782276904
0.005747888293879641,-0.0006262460162491392,0.005387146633686153
0.0007807834924068611,-0.0018447092615824915,-0.006705002447149317
-0.011717215682438577,0.0013099124175644542,0.0028519939744984318
0.017770243484681557,0.0034969357993891205,0.004610261868477348
-0.01961350823219519,-0.010912662232944435,-0.021972728782725895
-0.013952124412242615,-0.008111156194640479,-0.023715938477607286
-0.0030872073215436643,0.00032775408311634733,0.025585073675695097
0.015262261319187927,0.005565377984058247,-0.018426127747650477
-0.020105884964687293,-0.00841527786609049,0.006014035766580019
0.013644828069419149,0.00874262226206998,0.0062463450129362046
-0.0014465293684486997,-0.005195224055381798,-0.013787063774513282
-0.00996033255548551,-0.002655286518727779,0.014533573324864829
0.016666422565912775,0.009412166824425878,-0.008133243371318502
-0.016378106438415658,-0.011863576531991299,-0.002685913574205232
0.010856010970813953,0.009574078703627201,0.011986798378795058
0.000602507675626065,-0.0002540466310225124,-0.017982010430006974
-0.012624069695487577,-0.017347486302148087,0.0234338267481529
0.04928372714553658,-0.011093649206980557,0.026937588264320807
-0.02832200633729502,0.023754320361377184,-0.0033184801100316257
-0.0507183377780833,0.007655346812827361,-0.012116960340420396
-0.04962719044381794,-0.008952769372026104,0.0070683077207174105
0.05525045581968744,-0.02317811535938085,0.02714812969627348
0.051889798227173836,-0.001460841111320171,-0.012347929594214435
0.005000647443532853,0.00931349276369127,-0.026441692068453235
-0.01932406486932915,0.005831198618278601,-0.0008999899851476166
-0.10235182557009381,0.013758126998717854,-0.011802038207491377
0.046078120736716355,-0.023272062368545267,0.01601652613438574
0.052730817580213404,0.00333670707391516,0.017408577863993184
0.024954165124378806,0.012991830756273644,-0.0007629105067808173
0.006665127053588939,-0.00518335419379113,-0.00772600256695496
-0.08860795689770336,0.024702308650956656,-0.06029779689206605
0.03130120873548907,-0.022942575296281336,0.02101337564418946
0.05345354191354441,-0.006169354214833472,0.014957434235889345
0.035820197246762844,0.012511935370149815,0.0020973135258761082
-0.05034255422233229,0.013322177554732747,-0.019759116249431947
-0.06038984114134864,0.00046092085056102794,-0.007548439420480833
-0.005121305019822895,0.003948698613170407,0.017066041196294214
0.007442571138594322,-0.01951926702244693,0.008013805832301716
0.06202450884160112,-0.010240503102892276,-0.003142550383449753
0.017262478121263195,0.010303252844487909,-0.020873096371551707
-0.046422451694853734,0.004684329258284256,-0.0009103986687704502
-0.022012640301280098,0.015187134238901008,0.0023002655900161394
-0.050740963099784694,-0.004220787751613095,-0.014653344956794892
0.03578981397454161,0.029185702220065154,-0.011437299339472011
-0.02705468524505482,-0.00947286464265526,-0.0020550349872654992
-0.01277827442914426,-0.016507373066409495,-0.008669640499019915
0.008367818110270481,-0.031640804917320874,0.00918265347635143
-0.009509162641614492,-0.02475156438535124,0.009110876166647817
0.03222727194920207,0.029653127038419824,-0.01262044847505106
-0.030105417494388477,0.049110359753652216,0.01016035469929244
-0.011826262777655834,0.003935798408846954,-0.031908643515492524
0.07097964452712713,0.021125575212246027,-0.041004463580501305
-0.05929304372858951,0.015357043440776846,0.025342984671678254
0.034575464676784795,-0.0015164832561747766,0.008276773143246641
0.024601857488592865,-0.018453453650511955,0.02342611778555402
-0.035051037872632036,-0.01947138546766588,0.010417836722963529
0.04458915133632233,-0.046994343802668204,-0.04544991468550297
-0.07186027890011681,-0.01364487653905723,-0.028012029232078493
0.05999434225411723,-0.005833999317598142,-0.005430890139235631
-0.012677004889335278,-0.03127460991508872,-0.013666831754747377
-0.04854282135547515,0.049779342732555465,0.004295664193183274
0.014814922105425544,0.005516134928080795,-0.007645043788943869
0.029591325357160966,-0.019349614899537553,-0.001756194961906007
-0.013738376148326254,0.009005815377811116,-0.0033057038575012784
0.09199179023338011,0.005514936951225201,0.0036493435684968843
-0.13132177774128917,-0.006852773091910144,-0.023378223033326567
0.0503431570114681,0.007764731943898016,-0.026044101304923902
-0.12757416500919735,0.03167638520812122,0.03652982204024084
0.09669016119934051,-0.03331196940987008,0.005081567889651015
0.0059948768605979745,-0.01957476874415289,-0.016990184631798133
-0.04998750571492282,-0.010303530728974513,-0.01291746323316034
0.0693302795302373,-0.04149664173479121,-0.0009688650860239685
-0.09574554258093462,0.012260260776571096,-0.015113841794420314
0.043672707949579725,-0.010540428115571973,-0.017889876416362194
0.012571926999188273,0.016714085655100165,0.0012576639358432007
-0.0835677405240578,0.013169897832409544,-0.004402479150290406
0.10464037005985152,-0.03160614617194895,0.007617909772617587
-0.10877023806486963,-0.0012224770274846027,0.005121817802078869
0.05582303069172623,0.01719697807546987,-0.013729805536994755
-0.008235977137153119,0.020708157396390252,-0.005584960123176186
0.08245707363592236,-0.03751334241091127,-0.002377406151850045
-0.07931170888436134,-0.02022559243590403,-0.015032909096913056
0.023669874996728926,-0.03754397692178766,-0.012055506052151025
-0.002331552055564753,-0.007955375768444167,-0.005376585538592528
-0.054608132203737975,-0.010925623922880297,0.004394060384007126
0.031223903024418482,0.0122689295340708,0.022270978895927475
-0.01996864631551194,0.0521845346440514,-0.018390019377269556
-0.0027790980645703324,0.009936385668248032,-0.01088322291479397
-0.017757499946621007,-0.02103408460476716,0.005596872157657857
0.028194077718604917,0.017481621343726224,0.0020304628539605483
-0.02373141932662927,-0.008653270029132569,-0.009041043974201381
0.010227722550876464,-0.000282920114336202,0.01481672741432669
0.0029004294515862844,0.0122026614214649,-0.013386560567514487
-0.016558989531284714,-0.013351953029031586,0.004612003732543151
0.02149046341446402,0.006846675572983024,0.007409775131369189
-0.012846610886902882,0.0011342440544233642,-0.014734850392683485
0.0006561596710647584,-0.010187676374350613,0.017725260502213715
0.010256243677152515,0.01293104696635451,-0.016552231699916688
-0.014455486938955589,-0.011472550969567124,0.00937971632749015
0.00587486809342038,0.005332511414099201,-7.456440760501945e-05
0.03384463177760931,0.03730643428740772,-0.01616599413053836
-0.0031487613816023035,-0.01703678589403029,0.012704044854424142
-0.01060466244420695,0.006234516722886148,-0.00837623026673871
0.016902122801595483,-0.0007005938098434295,0.006742739611835283
-0.014313446900929247,-0.0026003974545815846,-0.0036932593877777725
0.005005198454525295,0.005032051310747581,0.0006840395984616687
0.006001912789432488,-0.005347461666655877,0.0014242736762591244
-0.013122875113952008,0.002020853604950414,-0.00721023978309497
0.013840415908908495,-0.001830644547118289,0.009435836360260892
-0.009035000104999694,0.0013161624300687246,-0.008230798712010417
-0.0012987344713826284,0.0032076708667302585,0.0036478017609098087
0.010718707094822765,-0.004156024554470061,0.0051509977085117675
-0.01316244931525775,0.007633181035419701,-0.014457953446848979
0.008341960947303816,-0.012684033292252643,0.027529945521357964
-0.016518509741417005,-0.022605378182364425,0.02367613948999738
0.020654211486529586,0.01222891716937202,-0.009818441374746925
-0.02202906892124049,-0.010435774045007324,0.011978980958174103
0.010962206772223584,0.004541572403174914,-0.0012492105985704677
0.0008765162901537524,-0.002749045367810398,-0.0028091738743886603
-0.015724687750350318,0.007618964998415843,-8.549753640968829e-05
0.024548613107946808,0.00012972962807808897,-0.0024866904529698298
-0.016669074027818816,-0.0070086148932615305,-0.002061911300867265
0.00159018249135874,0.004619793549051912,0.005653052532305773
0.009210480868557408,-0.003416782751407555,-0.0017406059318500217
-0.01737509111912882,0.0011862459952167192,2.4588152077431732e-05
0.024701418729603623,-0.005100030719041812,0.00648455771798778
-0.017905993075998,0.004543199899816246,-0.01024447839309361
0.0016736505850834388,0.0010630113779302526,0.009495260790377932
0.015851501510935558,-0.007681199379163596,-0.0025085341958879476
-0.0419955770335161,0.0072304114433653175,-0.00559015320122375
0.0842290455629603,-0.013341781149137078,0.015280174941947847
-0.09211752652442295,0.0058785985842545845,-0.02948835282958783
-0.026123780076571276,0.0017638043178605086,-0.0209867498213676
0.024883676133545585,-0.009084758966628081,0.022866715998374667
-0.009180440701899863,-0.010259902563508923,-0.01550607954451124
0.005937074524060093,0.01249919281078738,0.004588771611182629
-0.001442113647873957,-0.010311291808183494,0.009663799411460089
-0.00774862851945993,0.005518056218742347,-0.010956551726732065
0.014190540415543703,0.0007097095899582458,0.009176188426330101
-0.014079850680344709,-0.007588667262667744,-0.00292510440878963
0.0070306482454992585,0.009174842740174185,-0.003929033563969014
-0.0005862939497783385,-0.006915113442158402,0.010446308066375275
-0.009430254409545088,-0.00020197573697663767,-0.009907613221794002
0.023875002171985748,0.008397549365601824,-0.0005587821394543763
-0.03171346354512135,-0.015536958317614893,0.01959647803717027
-0.09511352000653285,0.05994832107239758,-0.06617016649314866
0.04047899748961723,0.0289777321308331,0.04140101403722642
-0.03696926772461563,-0.007416617529706321,-0.01734467593113146
0.021543544412195664,0.010636546233157657,0.0064481167391575245
-0.008581419480630884,-0.005414929520178768,0.002010719705890784
0.00475321222254747,-0.013141321936541136,0.002570414811152365
0.014569184344436019,0.0050902194713784606,0.00925356701134254
-0.02889575114350997,0.009653148388377353,-0.014624251114705417
0.014889092567761192,-0.0027627645780800786,-0.0022716251379627946
-0.0023598288467402573,-0.0012318586814843665,0.0056380353192938834
-0.006141973555081645,0.0014834657608930129,-0.0062287157628256136
0.013384586586427534,0.0033443249411887316,0.0034553976031356935
-0.017202623810915,-0.003729029006126356,0.0028388291618542567
0.01773688720653046,0.00015440011143157828,-0.00718768117053805
-0.019808246281994728,0.007830444599953603,0.007840027978873731
-0.018923836434613046,-0.004612974010654597,-0.0007197311725655247
0.0133908672791524,-0.004486246743511321,0.0009939387730289106
-0.014629600355884839,0.0041903916490307344,0.003070435513770316
0.01676681306728684,-0.004764789588357259,-0.003170557191402041
-0.014482971539918467,0.004870576663569777,0.003993424496331917
0.009456276920831933,-0.002055293266434088,-0.004546468194521185
-0.000540613981043793,-0.002343257421920293,0.003999001575573721
-0.009887721183232069,0.004928488273885369,-0.003981099246819695
0.016638636018648692,-0.003605098629664774,0.0018936663473095449
-0.018449859335730096,0.0019345316869945565,0.003073648018604984
0.010875160217267352,0.0015885583110365135,-0.0066068619022965885
0.00010031411039591127,-0.004432881376801698,0.008872011659694222
-0.009780738105695241,0.005466737248752917,-0.008616858567618936
0.015302878023673321,-0.00698670699873946,0.00533704826484463
-0.013450741073590804,0.004039498529486086,0.001093527311270489
0.01664841080386917,-0.002566595898776374,0.012727166139398057
-0.02032101024473573,0.024490824718461535,0.011771015366798462
0.03289338089261375,-0.00283354955897552,-0.022214770904530244
0.0432342030941566,-0.020915927632949763,0.003857703255261734
0.003763338453643862,-0.001205685980109665,0.011557269099372441
0.026276099640785835,-0.0011330225907138815,0.0008267218817765189
0.009016727312436532,-0.008724268558452108,0.000516416173921997
0.04236493730060205,-0.011123423401339386,-0.007447984527425397
-0.0930329688216121,-0.01364569053276055,-0.011057101081228506
-0.046598769144016616,0.015856186006099206,-0.010104504148202598
0.051724276982360866,0.02352109071413553,0.005723792128871166
-0.06740461578172191,-0.0080485820620992,0.007310765165953424
0.03265613476209808,0.017748526725897936,0.006945886816505448
-0.020607842382973026,0.02198678400784658,0.008757185197020111
0.052287340887194556,-0.029935544440818126,-0.0032856461353705027
0.008279108838503167,0.0035238515953525673,0.005335873774093137
0.00835159273869946,-0.04486464134723309,-0.018411843832224755
-0.06004567634490527,0.013716091155811056,-0.01094276923223925
-0.036433709945693754,0.02464189073611063,0.013738039261561377
0.002090952628191884,-0.008451096955968653,0.008381058274349727
0.010533034110861005,0.02290589903463068,0.0043762419998945555
0.021369823464901322,0.00514479997812347,-0.005091793802964239
0.043591054631125614,-0.017147762980180736,0.003148420390518852
-0.01975541375731967,-0.024164935203413375,-0.008413336966377343
-0.003436739245273976,0.0010395389507733268,-0.023953517592933005
-0.036737738407689596,0.03467683491712627,0.00500491510420988
-0.04756653979221081,-0.0024457382946915934,0.019612845841964013
0.05450153072083952,0.008661666968585734,0.0017646271454693349
-0.05620502507509549,0.017960607063976584,0.004245803809859925
-0.05044720965953664,0.0015147907990112983,0.004245984378708587
0.07554276577699581,-0.02739281551091887,-0.010968744313749855
0.02338041461896393,0.0215582512339522,-0.0007799571350236706
-0.08053405542684618,0.0013956923064953183,0.010728030883196064
-0.026217662753172978,-0.024886058191687994,-0.01311213462436879
-0.013472300864975834,0.002899513370099664,0.003521388618118671
0.06945376116485408,0.010539678005379752,0.013801703458960875
-0.013448937974517579,-0.0035493658651509982,-0.02550654677064143
-0.016751694389780213,-0.018642063777299225,0.0022386575406328196
-0.027577804303366225,0.009493728369280642,0.017717962046784733
0.04833667593157009,0.01834421633722945,-0.00887469851257433
-0.033203989281079524,0.023700887866900514,-0.005936893225541471
-0.02259712668225619,0.01073319651645639,0.007578040661334972
0.026664741362460387,-0.008119000689236707,-0.01034255972830996
-0.052018015576524454,-0.0036767296408990076,-0.006168039113116619
0.05786002602098283,-0.004844821789663294,0.014256197019132244
-0.03974738161241521,0.04226818236161709,-0.006638383657058079
-0.1000353582099385,0.021986150829734083,0.015365276874715506
0.11396831143353706,-0.020098233636500863,0.005136422635297379
-0.003073272212805924,0.0175924431738111,-0.01046841689595411
-0.05802280510898375,-0.0011390198249953652,-0.03566707557373835
0.030627760376722456,0.005324670008803212,-0.018363136630334204
-0.11659995620122421,0.0424332986737655,0.02058457935858205
0.08043182968354294,-0.04286012420713262,0.022074146478677996
-0.10761170637878781,0.00234242335129637,-0.023202785236997377
-0.04205144050938371,-0.002530101183645137,-0.002958890062560393
-6.076370721648516e-05,0.029325302094295205,0.010744998254304985
0.04247606561766862,-0.04300396520031719,0.02558949214333811
0.02653213300324358,-0.025028672716973004,-0.0008679938587362983
-0.04335469880648457,-0.003426606352448472,0.005311908915880965
-0.008625347940861255,-0.028393064922693625,-0.020666622567683673
0.0017808965443592978,0.012625141889185428,-0.027902042556869212
0.05973022962434048,-0.03119763367969062,-0.02603050690500244
-0.08851713502155754,0.0022612299558976076,0.003368316695746533
0.1638089500020346,-0.03301164174791554,0.006977810330762384
0.0028416853169098448,0.01832841132999639,-0.0012160236864995969
-0.02490788716276511,0.008213942781285542,-0.006843916605183312
0.03682171048699465,-0.015404017508038138,-0.039949329935708024
-0.1727051627146693,0.05022351313401875,0.001316447017093058
0.0827685784631993,-0.015427707393340567,0.03728934506111846
-0.07836422405759812,-0.024754131182435635,-0.03280718765911803
-0.029226331983873994,-0.004922900313152272,-0.0019184873300382294
-0.014986392813123667,0.0032826341851153115,0.040339977469891236
0.055389302385011205,-0.0056438415489339575,0.012300103521373765
0.003013988425058317,-0.005522179864134857,-0.0261040445338298
-0.07332892366895585,0.020831205527056973,0.032311015934716976
0.011408407375998228,0.0048417474876545205,-0.019184552204632235
-0.018879157025380223,0.0027584579311385957,-0.02472337699220715
0.094499151985582,-0.02024653338564656,0.036361490067677985
-0.09426230180794033,0.028096814664875392,0.004720909456685155
0.02707128067319845,0.06420047980996557,-0.017919854174916202
-0.0029396685095588806,-0.013274199393104327,0.014921689730914438
-0.0005555618865936126,-0.006814206715702568,-0.017400470706130697
-0.0036460757793981887,0.021256795506457815,0.012778255688380336
0.012900952760023288,-0.012677879678126192,-0.007528122869615517
-0.007501125797312676,0.0062032123361765446,0.0038669896957604765
-0.009938240333116643,0.0022478086664991445,0.01193046864860061
0.010963472056558322,-0.012921691344821037,-0.018486481504127926
-0.002950719711727658,0.008464501689206809,0.012975681712070211
0.001994556890923117,-0.0009629200720454029,-0.008068257824657775
-0.0016175667908357011,-0.004457291665528245,0.002725088479761584
-0.00870300080113914,0.012569655238195391,0.005599203995313601
0.02037479156500436,-0.01479641281402263,-0.012106079138225475
-0.02985341152116802,0.004358715894433792,0.021973016014702813
-0.010577325914957858,0.04380980523683889,-0.04016793599427708
0.0109820196588442,-0.02441886194223454,0.015706010886756345
-0.010123570742123849,0.015044216237353235,-0.006399020729170231
-0.0009755997463858565,0.006986357953817362,0.0010338585381248766
0.013741013009820238,-0.008801373964495188,-0.0018938834289360341
-0.008606814532813777,0.004183061968098357,-0.002141637239055798
0.002382481031097879,-0.008196973158986678,0.006225722139716132
-0.0003830891657252446,0.0017567161057627494,-0.005028381284453102
-0.0032779280130131416,0.0043741653347485225,0.006640087516384983
0.007216290133848865,-0.0026674366255096844,-0.010416296168317537
-0.006061018198146976,-0.012324132424824608,0.015077577923334053
-0.009029494790083067,0.041275391360681896,-0.03516544792982095
-0.0032803851501224,0.005092624730635892,-0.013692728957183101
-0.0016530489661020285,0.0052467408419939405,0.0008931450614057727
0.006110862082473677,-0.018200432379122472,0.007147745869273562
-0.0004580639429049941,0.01021326461115286,-0.010078417655644958
0.004300510158293409,-0.009394625575029732,0.010925509032338968
-0.0009387232397903909,0.005526436450368187,-0.007123897811250172
-0.0031545233499350417,-0.0004861966167407206,0.0016031199089555916
0.004053615397410311,-0.007718212184406031,0.004011343587656673
-0.010161231661293159,0.009484878031840878,-0.005282629609787333
0.010891702364585882,-0.011512314292869917,0.005845602332018877
-0.013138776786210934,0.013598356658433359,-0.0053791649295557905
0.020293616796467198,-0.012077700762511316,0.0025515410316510195
-0.10143669141572419,0.02278542315883667,0.040550902484116184
-0.02321816948878796,-0.03367193983409943,0.03848669709592556
0.008193337309090882,0.016342442503200477,-0.01241082486047363
-0.0018007381003311597,-0.010846893128375038,0.007493126718126218
-0.009598676872918979,0.010138448861028972,-0.01044841007478569
0.017324966397441778,-0.008835837103276085,0.007510110510718936
-0.01581311171627265,-0.002259665600452264,-0.0013110824721831046
0.008414542946211875,0.011254348356626571,-0.0037666971826853914
0.0014835853910396604,-0.013051783786374595,0.0066502297195117285
-0.012585892599293384,0.011064174690417754,-0.006699997843406772
0.018732662683525796,-0.001308334975201117,0.0009740021747582325
-0.01744725095305594,-0.009003934255317854,0.006501120668728372
0.010206940225125912,0.017432889270864164,-0.013627756687474738
-0.0015537594556894,-0.021182510712993152,0.01916497642450769
-0.08293562375620236,-0.024560205020412118,-0.06284055085012745
0.009602325031293065,0.0036757975853526606,0.025166320960348605
-0.014597556823765456,-0.01565813828195552,0.0025711769626809823
0.017637105837891305,0.019425248804359065,-0.015817308264626764
-0.021961701255359393,-0.011650980794396412,0.013556176109503198
0.0134234626494492,-0.008073581263861231,-0.008276579109558355
-0.0020088597677990596,0.006990500571117461,0.004862825843163162
-0.009356405128150547,-0.007124662497217941,0.006660859709279992
0.02036201393427571,0.008512140048684355,-0.010851593740741855
-0.018820403125202813,0.0007019931052497526,0.01011581582131436
0.00974505263920544,-0.006293561819605543,-0.006273604278496548
0.0027894641797969136,0.007791470703319033,-0.0010615473768924534
-0.020574670961311825,-0.007400326473624657,0.006418187711382839
0.03362917103673319,0.0010440856409546133,-0.011518746130305325
-0.03931560111124208,0.0038205835787235363,0.01520308753734214
-0.05272764861239127,-0.010816337470685146,-0.004347283684825612
0.030328822194117512,-0.008846263153885096,0.0037169349089541366
-0.01680980703774253,-0.0077833163938923365,0.006135723380743738
-0.004357497453185992,0.0141089942771796,-0.011444102896898758
0.01611137768615952,-0.017900896425844304,0.014697737545914344
-0.016609022738271022,0.010104692478962701,-0.012087545138104833
0.011014522462207476,-0.0020831660949425152,0.007652823680114369
-0.0006800397779337636,-0.0027783763682003005,-0.000501093213142967
-0.0104836842320467,0.008211160420858411,-0.008481259663926866
0.01443502583668137,-0.012445659917439282,0.01574939971775037
-0.007667706528447641,0.010464131333918698,-0.016477182846710067
-0.00403683302501351,-0.0023309427274152564,0.008078716933106756
0.014341870858931603,-0.008352646949001435,0.006091999879573808
-0.012505600920843692,0.012264350465145669,-0.023279826152650743
-0.00029039561655242027,-0.006964795932382344,0.04331244662382077
0.030353611408180298,0.0031914480118108088,-0.015260653300143572
-0.054400677022916004,-0.0033341669807751897,-0.026430043570389312
-0.043111562634732245,0.014681439440190324,0.010788248892189635
0.043778486066446326,-0.035116400027765865,0.01575714740382421
-0.03733177788521168,0.008419901371548272,0.005036954512772326
0.036891413567709135,0.018450362801587794,0.007653534275184004
0.0404767986740313,-0.00888622341468224,-0.018603433146341795
0.0010002148363820948,0.0020157255146136394,0.008207527945409715
0.017948824719856798,-0.013395291203527714,-0.005380258220863545
-0.07199373826949018,0.005070416873158602,-0.02161669035846691
-0.003720443190100453,0.01751114094103351,0.014450966724314087
-0.028091884385976804,-0.0049733629812754795,-0.0022624906063894923
